"rt","key_press","trial_type","trial_index","time_elapsed","internal_node_id","subject","stimulus","label","correctAnswer","correct"
28285,32,"text",0,28290,"0.0-0.0","1yZfK","","",NA,""
10356,74,"single-stim",1,39657,"0.0-1.0","1yZfK","<div class='imageholder'><img class='imagecenter' src='critTrial.png'/><div class='caption'><p style='text-align:center'>Consider the image below. Suppose that a dot is purple if it was painted by ''the purple team'', a dot is green if it was painted by ''the green team'', etc. In this light, does the sentence below the picture accurately describe the picture? When you have made your judgment, press <strong>f</strong> for ''yes'', and <strong>j</strong> for ''no''.</p></div><p class='sentence' id='examplesentence'><strong>The yellow team painted most of the dots.</strong></p></div>","",NA,""
20762,32,"text",2,61422,"0.0-2.0","1yZfK","","",NA,""
8527,32,"text",3,70954,"0.0-3.0","1yZfK","","",NA,""
6365,32,"text",4,78324,"0.0-4.0","1yZfK","","",NA,""
10740,32,"text",5,90069,"0.0-5.0","1yZfK","","",NA,""
4461,32,"text",6,95531,"0.0-6.0","1yZfK","","",NA,""
12855,32,"text",7,109404,"0.0-7.0","1yZfK","","",NA,""
5902,32,"text",8,116308,"0.0-8.0","1yZfK","","",NA,""
14039,74,"single-stim",9,131358,"0.0-9.0","1yZfK","<p class='textcenter' id='intro'>The postman was tasked with delivering hundreds of pieces of mail on Tuesday.</p><p class='sentence'>After delivering two-thirds of the mail he was tasked with getting out there, he had less than half of his pile left to deliver.</p>","nc2",74,"true"
13027,74,"single-stim",10,145391,"0.0-10.0","1yZfK","<p class='textcenter' id='intro'>Many people attended a number of meetings.</p><p class='sentence'>The new guy in the department offered an opinion at most of the meetings, and surprisingly everyone listened to those opinions.</p>","nc1",74,"true"
6903,70,"single-stim",11,153301,"0.0-11.0","1yZfK","<p class='textcenter' id='intro'>There are 14 Chicago radio stations currently operating.</p><p class='sentence'>Every Chicago radio station might play the blues 24/7, but every Chicago radio station might not play the blues 24/7.</p>","nc2",74,"false"
8069,70,"single-stim",12,162378,"0.0-12.0","1yZfK","<p class='textcenter' id='intro'>A hot new record label released 7 albums last year.</p><p class='sentence'>One particular musician recorded a song that appeared on every one of those albums, even though he didn't record any songs.</p>","c1",70,"true"
7694,70,"single-stim",13,171076,"0.0-13.0","1yZfK","<p class='textcenter' id='intro'>A group of children painted each of 100 eggs a solid color.</p><p class='sentence'>In the end, even though less than half of the eggs were painted green, nonetheless most of the eggs were painted green.</p>","target",NA,""
-1,-1,"single-stim",14,172155,"0.0-14.0","1yZfK"," ","",NA,""
6229,32,"text",0,6232,"0.0-0.0","1Z79o","","",NA,""
9634,74,"single-stim",1,16874,"0.0-1.0","1Z79o","<div class='imageholder'><img class='imagecenter' src='critTrial.png'/><div class='caption'><p style='text-align:center'>Consider the image below. Suppose that a dot is purple if it was painted by ''the purple team'', a dot is green if it was painted by ''the green team'', etc. In this light, does the sentence below the picture accurately describe the picture? When you have made your judgment, press <strong>f</strong> for ''yes'', and <strong>j</strong> for ''no''.</p></div><p class='sentence' id='examplesentence'><strong>The yellow team painted most of the dots.</strong></p></div>","",NA,""
268013,32,"text",2,285887,"0.0-2.0","1Z79o","","",NA,""
8161,32,"text",3,295052,"0.0-3.0","1Z79o","","",NA,""
17803,32,"text",4,313855,"0.0-4.0","1Z79o","","",NA,""
5112,32,"text",5,319983,"0.0-5.0","1Z79o","","",NA,""
3836,32,"text",6,324826,"0.0-6.0","1Z79o","","",NA,""
8820,32,"text",7,334646,"0.0-7.0","1Z79o","","",NA,""
6927,32,"text",8,342577,"0.0-8.0","1Z79o","","",NA,""
6789,74,"single-stim",9,350369,"0.0-9.0","1Z79o","<p class='textcenter' id='intro'>There are 14 Chicago radio stations currently operating.</p><p class='sentence'>Every Chicago radio station might play the blues 24/7, but every Chicago radio station might not play the blues 24/7.</p>","nc2",74,"true"
7216,74,"single-stim",10,358586,"0.0-10.0","1Z79o","<p class='textcenter' id='intro'>Many people attended a number of meetings.</p><p class='sentence'>The new guy in the department offered an opinion at most of the meetings, and surprisingly everyone listened to those opinions.</p>","nc1",74,"true"
16832,74,"single-stim",11,376418,"0.0-11.0","1Z79o","<p class='textcenter' id='intro'>The postman was tasked with delivering hundreds of pieces of mail on Tuesday.</p><p class='sentence'>After delivering two-thirds of the mail he was tasked with getting out there, he had less than half of his pile left to deliver.</p>","nc2",74,"true"
9750,70,"single-stim",12,387168,"0.0-12.0","1Z79o","<p class='textcenter' id='intro'>A hot new record label released 7 albums last year.</p><p class='sentence'>One particular musician recorded a song that appeared on every one of those albums, even though he didn't record any songs.</p>","c1",70,"true"
9967,74,"single-stim",13,398136,"0.0-13.0","1Z79o","<p class='textcenter' id='intro'>A group of children painted each of 100 eggs a solid color.</p><p class='sentence'>In the end, even though less than half of the eggs were painted green, nonetheless most of the eggs were painted green.</p>","target",NA,""
-1,-1,"single-stim",14,399138,"0.0-14.0","1Z79o"," ","",NA,""
7285,32,"text",0,7289,"0.0-0.0","2mrel","","",NA,""
29406,70,"single-stim",1,37703,"0.0-1.0","2mrel","<div class='imageholder'><img class='imagecenter' src='critTrial.png'/><div class='caption'><p style='text-align:center'>Consider the image below. Suppose that a dot is purple if it was painted by ''the purple team'', a dot is green if it was painted by ''the green team'', etc. In this light, does the sentence below the picture accurately describe the picture? When you have made your judgment, press <strong>f</strong> for ''yes'', and <strong>j</strong> for ''no''.</p></div><p class='sentence' id='examplesentence'><strong>The yellow team painted most of the dots.</strong></p></div>","",NA,""
7798,32,"text",2,46501,"0.0-2.0","2mrel","","",NA,""
12168,32,"text",3,59670,"0.0-3.0","2mrel","","",NA,""
9783,32,"text",4,70454,"0.0-4.0","2mrel","","",NA,""
11111,32,"text",5,82566,"0.0-5.0","2mrel","","",NA,""
4270,32,"text",6,87837,"0.0-6.0","2mrel","","",NA,""
6017,32,"text",7,94854,"0.0-7.0","2mrel","","",NA,""
7335,32,"text",8,103189,"0.0-8.0","2mrel","","",NA,""
10192,70,"single-stim",9,114382,"0.0-9.0","2mrel","<p class='textcenter' id='intro'>A hot new record label released 7 albums last year.</p><p class='sentence'>One particular musician recorded a song that appeared on every one of those albums, even though he didn't record any songs.</p>","c1",70,"true"
17854,74,"single-stim",10,133239,"0.0-10.0","2mrel","<p class='textcenter' id='intro'>The postman was tasked with delivering hundreds of pieces of mail on Tuesday.</p><p class='sentence'>After delivering two-thirds of the mail he was tasked with getting out there, he had less than half of his pile left to deliver.</p>","nc2",74,"true"
15463,74,"single-stim",11,149703,"0.0-11.0","2mrel","<p class='textcenter' id='intro'>Many people attended a number of meetings.</p><p class='sentence'>The new guy in the department offered an opinion at most of the meetings, and surprisingly everyone listened to those opinions.</p>","nc1",74,"true"
16887,74,"single-stim",12,167591,"0.0-12.0","2mrel","<p class='textcenter' id='intro'>There are 14 Chicago radio stations currently operating.</p><p class='sentence'>Every Chicago radio station might play the blues 24/7, but every Chicago radio station might not play the blues 24/7.</p>","nc2",74,"true"
27863,74,"single-stim",13,196454,"0.0-13.0","2mrel","<p class='textcenter' id='intro'>A group of children painted each of 100 eggs a solid color.</p><p class='sentence'>In the end, even though less than half of the eggs were painted green, nonetheless most of the eggs were painted green.</p>","target",NA,""
-1,-1,"single-stim",14,197455,"0.0-14.0","2mrel"," ","",NA,""
72880,32,"text",0,72886,"0.0-0.0","2rxUG","","",NA,""
20973,70,"single-stim",1,94879,"0.0-1.0","2rxUG","<div class='imageholder'><img class='imagecenter' src='critTrial.png'/><div class='caption'><p style='text-align:center'>Consider the image below. Suppose that a dot is purple if it was painted by ''the purple team'', a dot is green if it was painted by ''the green team'', etc. In this light, does the sentence below the picture accurately describe the picture? When you have made your judgment, press <strong>f</strong> for ''yes'', and <strong>j</strong> for ''no''.</p></div><p class='sentence' id='examplesentence'><strong>The yellow team painted most of the dots.</strong></p></div>","",NA,""
12008,32,"text",2,107887,"0.0-2.0","2rxUG","","",NA,""
8724,32,"text",3,117612,"0.0-3.0","2rxUG","","",NA,""
7541,32,"text",4,126153,"0.0-4.0","2rxUG","","",NA,""
6261,32,"text",5,133414,"0.0-5.0","2rxUG","","",NA,""
2777,32,"text",6,137192,"0.0-6.0","2rxUG","","",NA,""
8779,32,"text",7,146972,"0.0-7.0","2rxUG","","",NA,""
10204,32,"text",8,158176,"0.0-8.0","2rxUG","","",NA,""
9848,74,"single-stim",9,169027,"0.0-9.0","2rxUG","<p class='textcenter' id='intro'>Many people attended a number of meetings.</p><p class='sentence'>The new guy in the department offered an opinion at most of the meetings, and surprisingly everyone listened to those opinions.</p>","nc1",74,"true"
4933,70,"single-stim",10,174962,"0.0-10.0","2rxUG","<p class='textcenter' id='intro'>A hot new record label released 7 albums last year.</p><p class='sentence'>One particular musician recorded a song that appeared on every one of those albums, even though he didn't record any songs.</p>","c1",70,"true"
6308,70,"single-stim",11,182270,"0.0-11.0","2rxUG","<p class='textcenter' id='intro'>The postman was tasked with delivering hundreds of pieces of mail on Tuesday.</p><p class='sentence'>After delivering two-thirds of the mail he was tasked with getting out there, he had less than half of his pile left to deliver.</p>","nc2",74,"false"
11381,74,"single-stim",12,194653,"0.0-12.0","2rxUG","<p class='textcenter' id='intro'>There are 14 Chicago radio stations currently operating.</p><p class='sentence'>Every Chicago radio station might play the blues 24/7, but every Chicago radio station might not play the blues 24/7.</p>","nc2",74,"true"
5404,70,"single-stim",13,201058,"0.0-13.0","2rxUG","<p class='textcenter' id='intro'>A group of children painted each of 100 eggs a solid color.</p><p class='sentence'>In the end, even though less than half of the eggs were painted green, nonetheless most of the eggs were painted green.</p>","target",NA,""
-1,-1,"single-stim",14,202060,"0.0-14.0","2rxUG"," ","",NA,""
10139,32,"text",0,10144,"0.0-0.0","4jDqj","","",NA,""
26540,74,"single-stim",1,37720,"0.0-1.0","4jDqj","<div class='imageholder'><img class='imagecenter' src='critTrial.png'/><div class='caption'><p style='text-align:center'>Consider the image below. Suppose that a dot is purple if it was painted by ''the purple team'', a dot is green if it was painted by ''the green team'', etc. In this light, does the sentence below the picture accurately describe the picture? When you have made your judgment, press <strong>f</strong> for ''yes'', and <strong>j</strong> for ''no''.</p></div><p class='sentence' id='examplesentence'><strong>The yellow team painted most of the dots.</strong></p></div>","",NA,""
13484,32,"text",2,52207,"0.0-2.0","4jDqj","","",NA,""
8957,32,"text",3,62192,"0.0-3.0","4jDqj","","",NA,""
6135,32,"text",4,69343,"0.0-4.0","4jDqj","","",NA,""
32432,32,"text",5,102791,"0.0-5.0","4jDqj","","",NA,""
3530,32,"text",6,107351,"0.0-6.0","4jDqj","","",NA,""
7920,32,"text",7,116279,"0.0-7.0","4jDqj","","",NA,""
12804,32,"text",8,130095,"0.0-8.0","4jDqj","","",NA,""
27717,74,"single-stim",9,158838,"0.0-9.0","4jDqj","<p class='textcenter' id='intro'>The postman was tasked with delivering hundreds of pieces of mail on Tuesday.</p><p class='sentence'>After delivering two-thirds of the mail he was tasked with getting out there, he had less than half of his pile left to deliver.</p>","nc2",74,"true"
19866,74,"single-stim",10,179719,"0.0-10.0","4jDqj","<p class='textcenter' id='intro'>There are 14 Chicago radio stations currently operating.</p><p class='sentence'>Every Chicago radio station might play the blues 24/7, but every Chicago radio station might not play the blues 24/7.</p>","nc2",74,"true"
7878,74,"single-stim",11,188606,"0.0-11.0","4jDqj","<p class='textcenter' id='intro'>Many people attended a number of meetings.</p><p class='sentence'>The new guy in the department offered an opinion at most of the meetings, and surprisingly everyone listened to those opinions.</p>","nc1",74,"true"
10667,70,"single-stim",12,200288,"0.0-12.0","4jDqj","<p class='textcenter' id='intro'>A hot new record label released 7 albums last year.</p><p class='sentence'>One particular musician recorded a song that appeared on every one of those albums, even though he didn't record any songs.</p>","c1",70,"true"
9467,70,"single-stim",13,210760,"0.0-13.0","4jDqj","<p class='textcenter' id='intro'>A group of children painted each of 100 eggs a solid color.</p><p class='sentence'>In the end, even though less than half of the eggs were painted green, nonetheless most of the eggs were painted green.</p>","target",NA,""
-1,-1,"single-stim",14,211782,"0.0-14.0","4jDqj"," ","",NA,""
7876,32,"text",0,7891,"0.0-0.0","4kNb7","","",NA,""
16381,74,"single-stim",1,25296,"0.0-1.0","4kNb7","<div class='imageholder'><img class='imagecenter' src='critTrial.png'/><div class='caption'><p style='text-align:center'>Consider the image below. Suppose that a dot is purple if it was painted by ''the purple team'', a dot is green if it was painted by ''the green team'', etc. In this light, does the sentence below the picture accurately describe the picture? When you have made your judgment, press <strong>f</strong> for ''yes'', and <strong>j</strong> for ''no''.</p></div><p class='sentence' id='examplesentence'><strong>The yellow team painted most of the dots.</strong></p></div>","",NA,""
4683,32,"text",2,31004,"0.0-2.0","4kNb7","","",NA,""
4471,32,"text",3,36494,"0.0-3.0","4kNb7","","",NA,""
3336,32,"text",4,40844,"0.0-4.0","4kNb7","","",NA,""
2799,32,"text",5,44652,"0.0-5.0","4kNb7","","",NA,""
2587,32,"text",6,48244,"0.0-6.0","4kNb7","","",NA,""
3646,32,"text",7,52924,"0.0-7.0","4kNb7","","",NA,""
4048,32,"text",8,57995,"0.0-8.0","4kNb7","","",NA,""
13680,74,"single-stim",9,72686,"0.0-9.0","4kNb7","<p class='textcenter' id='intro'>There are 14 Chicago radio stations currently operating.</p><p class='sentence'>Every Chicago radio station might play the blues 24/7, but every Chicago radio station might not play the blues 24/7.</p>","nc2",74,"true"
6407,70,"single-stim",10,80107,"0.0-10.0","4kNb7","<p class='textcenter' id='intro'>The postman was tasked with delivering hundreds of pieces of mail on Tuesday.</p><p class='sentence'>After delivering two-thirds of the mail he was tasked with getting out there, he had less than half of his pile left to deliver.</p>","nc2",74,"false"
4213,70,"single-stim",11,85341,"0.0-11.0","4kNb7","<p class='textcenter' id='intro'>A hot new record label released 7 albums last year.</p><p class='sentence'>One particular musician recorded a song that appeared on every one of those albums, even though he didn't record any songs.</p>","c1",70,"true"
3056,74,"single-stim",12,89403,"0.0-12.0","4kNb7","<p class='textcenter' id='intro'>Many people attended a number of meetings.</p><p class='sentence'>The new guy in the department offered an opinion at most of the meetings, and surprisingly everyone listened to those opinions.</p>","nc1",74,"true"
4652,74,"single-stim",13,95084,"0.0-13.0","4kNb7","<p class='textcenter' id='intro'>A group of children painted each of 100 eggs a solid color.</p><p class='sentence'>In the end, even though less than half of the eggs were painted green, nonetheless most of the eggs were painted green.</p>","target",NA,""
-1,-1,"single-stim",14,96089,"0.0-14.0","4kNb7"," ","",NA,""
127225,32,"text",0,127239,"0.0-0.0","4nsBl","","",NA,""
19716,70,"single-stim",1,147959,"0.0-1.0","4nsBl","<div class='imageholder'><img class='imagecenter' src='critTrial.png'/><div class='caption'><p style='text-align:center'>Consider the image below. Suppose that a dot is purple if it was painted by ''the purple team'', a dot is green if it was painted by ''the green team'', etc. In this light, does the sentence below the picture accurately describe the picture? When you have made your judgment, press <strong>f</strong> for ''yes'', and <strong>j</strong> for ''no''.</p></div><p class='sentence' id='examplesentence'><strong>The yellow team painted most of the dots.</strong></p></div>","",NA,""
27307,32,"text",2,176266,"0.0-2.0","4nsBl","","",NA,""
27449,32,"text",3,204716,"0.0-3.0","4nsBl","","",NA,""
9064,32,"text",4,214781,"0.0-4.0","4nsBl","","",NA,""
8193,32,"text",5,223980,"0.0-5.0","4nsBl","","",NA,""
4344,32,"text",6,229324,"0.0-6.0","4nsBl","","",NA,""
7511,32,"text",7,237835,"0.0-7.0","4nsBl","","",NA,""
4117,32,"text",8,242953,"0.0-8.0","4nsBl","","",NA,""
13793,70,"single-stim",9,257748,"0.0-9.0","4nsBl","<p class='textcenter' id='intro'>A hot new record label released 7 albums last year.</p><p class='sentence'>One particular musician recorded a song that appeared on every one of those albums, even though he didn't record any songs.</p>","c1",70,"true"
7434,74,"single-stim",10,266188,"0.0-10.0","4nsBl","<p class='textcenter' id='intro'>Many people attended a number of meetings.</p><p class='sentence'>The new guy in the department offered an opinion at most of the meetings, and surprisingly everyone listened to those opinions.</p>","nc1",74,"true"
23544,74,"single-stim",11,290733,"0.0-11.0","4nsBl","<p class='textcenter' id='intro'>The postman was tasked with delivering hundreds of pieces of mail on Tuesday.</p><p class='sentence'>After delivering two-thirds of the mail he was tasked with getting out there, he had less than half of his pile left to deliver.</p>","nc2",74,"true"
26007,74,"single-stim",12,317740,"0.0-12.0","4nsBl","<p class='textcenter' id='intro'>There are 14 Chicago radio stations currently operating.</p><p class='sentence'>Every Chicago radio station might play the blues 24/7, but every Chicago radio station might not play the blues 24/7.</p>","nc2",74,"true"
7136,70,"single-stim",13,325877,"0.0-13.0","4nsBl","<p class='textcenter' id='intro'>A group of children painted each of 100 eggs a solid color.</p><p class='sentence'>In the end, even though less than half of the eggs were painted green, nonetheless most of the eggs were painted green.</p>","target",NA,""
-1,-1,"single-stim",14,326888,"0.0-14.0","4nsBl"," ","",NA,""
12613,32,"text",0,12620,"0.0-0.0","4udUH","","",NA,""
37172,70,"single-stim",1,50805,"0.0-1.0","4udUH","<div class='imageholder'><img class='imagecenter' src='critTrial.png'/><div class='caption'><p style='text-align:center'>Consider the image below. Suppose that a dot is purple if it was painted by ''the purple team'', a dot is green if it was painted by ''the green team'', etc. In this light, does the sentence below the picture accurately describe the picture? When you have made your judgment, press <strong>f</strong> for ''yes'', and <strong>j</strong> for ''no''.</p></div><p class='sentence' id='examplesentence'><strong>The yellow team painted most of the dots.</strong></p></div>","",NA,""
3414,32,"text",2,55239,"0.0-2.0","4udUH","","",NA,""
12126,32,"text",3,68373,"0.0-3.0","4udUH","","",NA,""
6924,32,"text",4,76326,"0.0-4.0","4udUH","","",NA,""
14587,32,"text",5,91945,"0.0-5.0","4udUH","","",NA,""
42230,32,"text",6,135198,"0.0-6.0","4udUH","","",NA,""
9530,32,"text",7,145733,"0.0-7.0","4udUH","","",NA,""
3042,32,"text",8,149794,"0.0-8.0","4udUH","","",NA,""
31848,70,"single-stim",9,182666,"0.0-9.0","4udUH","<p class='textcenter' id='intro'>The postman was tasked with delivering hundreds of pieces of mail on Tuesday.</p><p class='sentence'>After delivering two-thirds of the mail he was tasked with getting out there, he had less than half of his pile left to deliver.</p>","nc2",74,"false"
31447,74,"single-stim",10,215146,"0.0-10.0","4udUH","<p class='textcenter' id='intro'>Many people attended a number of meetings.</p><p class='sentence'>The new guy in the department offered an opinion at most of the meetings, and surprisingly everyone listened to those opinions.</p>","nc1",74,"true"
9811,74,"single-stim",11,225975,"0.0-11.0","4udUH","<p class='textcenter' id='intro'>There are 14 Chicago radio stations currently operating.</p><p class='sentence'>Every Chicago radio station might play the blues 24/7, but every Chicago radio station might not play the blues 24/7.</p>","nc2",74,"true"
9104,70,"single-stim",12,236084,"0.0-12.0","4udUH","<p class='textcenter' id='intro'>A hot new record label released 7 albums last year.</p><p class='sentence'>One particular musician recorded a song that appeared on every one of those albums, even though he didn't record any songs.</p>","c1",70,"true"
12312,70,"single-stim",13,249424,"0.0-13.0","4udUH","<p class='textcenter' id='intro'>A group of children painted each of 100 eggs a solid color.</p><p class='sentence'>In the end, even though less than half of the eggs were painted green, nonetheless most of the eggs were painted green.</p>","target",NA,""
-1,-1,"single-stim",14,250461,"0.0-14.0","4udUH"," ","",NA,""
10682,32,"text",0,10690,"0.0-0.0","5UcJj","","",NA,""
32114,74,"single-stim",1,43823,"0.0-1.0","5UcJj","<div class='imageholder'><img class='imagecenter' src='critTrial.png'/><div class='caption'><p style='text-align:center'>Consider the image below. Suppose that a dot is purple if it was painted by ''the purple team'', a dot is green if it was painted by ''the green team'', etc. In this light, does the sentence below the picture accurately describe the picture? When you have made your judgment, press <strong>f</strong> for ''yes'', and <strong>j</strong> for ''no''.</p></div><p class='sentence' id='examplesentence'><strong>The yellow team painted most of the dots.</strong></p></div>","",NA,""
12568,32,"text",2,57397,"0.0-2.0","5UcJj","","",NA,""
22248,32,"text",3,80651,"0.0-3.0","5UcJj","","",NA,""
18822,32,"text",4,100477,"0.0-4.0","5UcJj","","",NA,""
14016,32,"text",5,115501,"0.0-5.0","5UcJj","","",NA,""
7300,32,"text",6,123806,"0.0-6.0","5UcJj","","",NA,""
20080,32,"text",7,144901,"0.0-7.0","5UcJj","","",NA,""
14439,32,"text",8,160346,"0.0-8.0","5UcJj","","",NA,""
26493,74,"single-stim",9,187854,"0.0-9.0","5UcJj","<p class='textcenter' id='intro'>Many people attended a number of meetings.</p><p class='sentence'>The new guy in the department offered an opinion at most of the meetings, and surprisingly everyone listened to those opinions.</p>","nc1",74,"true"
27318,74,"single-stim",10,216180,"0.0-10.0","5UcJj","<p class='textcenter' id='intro'>There are 14 Chicago radio stations currently operating.</p><p class='sentence'>Every Chicago radio station might play the blues 24/7, but every Chicago radio station might not play the blues 24/7.</p>","nc2",74,"true"
14713,70,"single-stim",11,231905,"0.0-11.0","5UcJj","<p class='textcenter' id='intro'>A hot new record label released 7 albums last year.</p><p class='sentence'>One particular musician recorded a song that appeared on every one of those albums, even though he didn't record any songs.</p>","c1",70,"true"
24508,74,"single-stim",12,257422,"0.0-12.0","5UcJj","<p class='textcenter' id='intro'>The postman was tasked with delivering hundreds of pieces of mail on Tuesday.</p><p class='sentence'>After delivering two-thirds of the mail he was tasked with getting out there, he had less than half of his pile left to deliver.</p>","nc2",74,"true"
15868,70,"single-stim",13,274303,"0.0-13.0","5UcJj","<p class='textcenter' id='intro'>A group of children painted each of 100 eggs a solid color.</p><p class='sentence'>In the end, even though less than half of the eggs were painted green, nonetheless most of the eggs were painted green.</p>","target",NA,""
-1,-1,"single-stim",14,275325,"0.0-14.0","5UcJj"," ","",NA,""
88048,32,"text",0,88055,"0.0-0.0","6YLmR","","",NA,""
16740,70,"single-stim",1,105811,"0.0-1.0","6YLmR","<div class='imageholder'><img class='imagecenter' src='critTrial.png'/><div class='caption'><p style='text-align:center'>Consider the image below. Suppose that a dot is purple if it was painted by ''the purple team'', a dot is green if it was painted by ''the green team'', etc. In this light, does the sentence below the picture accurately describe the picture? When you have made your judgment, press <strong>f</strong> for ''yes'', and <strong>j</strong> for ''no''.</p></div><p class='sentence' id='examplesentence'><strong>The yellow team painted most of the dots.</strong></p></div>","",NA,""
2761,32,"text",2,109574,"0.0-2.0","6YLmR","","",NA,""
4842,32,"text",3,115417,"0.0-3.0","6YLmR","","",NA,""
4012,32,"text",4,120431,"0.0-4.0","6YLmR","","",NA,""
2568,32,"text",5,124000,"0.0-5.0","6YLmR","","",NA,""
1991,32,"text",6,126991,"0.0-6.0","6YLmR","","",NA,""
2713,32,"text",7,130706,"0.0-7.0","6YLmR","","",NA,""
1610,32,"text",8,133317,"0.0-8.0","6YLmR","","",NA,""
6745,70,"single-stim",9,141068,"0.0-9.0","6YLmR","<p class='textcenter' id='intro'>A hot new record label released 7 albums last year.</p><p class='sentence'>One particular musician recorded a song that appeared on every one of those albums, even though he didn't record any songs.</p>","c1",70,"true"
4072,74,"single-stim",10,146144,"0.0-10.0","6YLmR","<p class='textcenter' id='intro'>Many people attended a number of meetings.</p><p class='sentence'>The new guy in the department offered an opinion at most of the meetings, and surprisingly everyone listened to those opinions.</p>","nc1",74,"true"
4364,74,"single-stim",11,151511,"0.0-11.0","6YLmR","<p class='textcenter' id='intro'>There are 14 Chicago radio stations currently operating.</p><p class='sentence'>Every Chicago radio station might play the blues 24/7, but every Chicago radio station might not play the blues 24/7.</p>","nc2",74,"true"
10867,70,"single-stim",12,163380,"0.0-12.0","6YLmR","<p class='textcenter' id='intro'>The postman was tasked with delivering hundreds of pieces of mail on Tuesday.</p><p class='sentence'>After delivering two-thirds of the mail he was tasked with getting out there, he had less than half of his pile left to deliver.</p>","nc2",74,"false"
20953,74,"single-stim",13,185335,"0.0-13.0","6YLmR","<p class='textcenter' id='intro'>A group of children painted each of 100 eggs a solid color.</p><p class='sentence'>In the end, even though less than half of the eggs were painted green, nonetheless most of the eggs were painted green.</p>","target",NA,""
-1,-1,"single-stim",14,186338,"0.0-14.0","6YLmR"," ","",NA,""
7140,32,"text",0,7149,"0.0-0.0","71ROp","","",NA,""
5104,70,"single-stim",1,13263,"0.0-1.0","71ROp","<div class='imageholder'><img class='imagecenter' src='critTrial.png'/><div class='caption'><p style='text-align:center'>Consider the image below. Suppose that a dot is purple if it was painted by ''the purple team'', a dot is green if it was painted by ''the green team'', etc. In this light, does the sentence below the picture accurately describe the picture? When you have made your judgment, press <strong>f</strong> for ''yes'', and <strong>j</strong> for ''no''.</p></div><p class='sentence' id='examplesentence'><strong>The yellow team painted most of the dots.</strong></p></div>","",NA,""
4118,32,"text",2,18384,"0.0-2.0","71ROp","","",NA,""
3582,32,"text",3,22968,"0.0-3.0","71ROp","","",NA,""
2260,32,"text",4,26229,"0.0-4.0","71ROp","","",NA,""
2542,32,"text",5,29772,"0.0-5.0","71ROp","","",NA,""
4006,32,"text",6,34779,"0.0-6.0","71ROp","","",NA,""
3199,32,"text",7,38980,"0.0-7.0","71ROp","","",NA,""
8491,32,"text",8,48471,"0.0-8.0","71ROp","","",NA,""
10168,74,"single-stim",9,59641,"0.0-9.0","71ROp","<p class='textcenter' id='intro'>The postman was tasked with delivering hundreds of pieces of mail on Tuesday.</p><p class='sentence'>After delivering two-thirds of the mail he was tasked with getting out there, he had less than half of his pile left to deliver.</p>","nc2",74,"true"
12103,74,"single-stim",10,72747,"0.0-10.0","71ROp","<p class='textcenter' id='intro'>Many people attended a number of meetings.</p><p class='sentence'>The new guy in the department offered an opinion at most of the meetings, and surprisingly everyone listened to those opinions.</p>","nc1",74,"true"
10044,70,"single-stim",11,83793,"0.0-11.0","71ROp","<p class='textcenter' id='intro'>A hot new record label released 7 albums last year.</p><p class='sentence'>One particular musician recorded a song that appeared on every one of those albums, even though he didn't record any songs.</p>","c1",70,"true"
5017,70,"single-stim",12,89811,"0.0-12.0","71ROp","<p class='textcenter' id='intro'>There are 14 Chicago radio stations currently operating.</p><p class='sentence'>Every Chicago radio station might play the blues 24/7, but every Chicago radio station might not play the blues 24/7.</p>","nc2",74,"false"
5260,70,"single-stim",13,96073,"0.0-13.0","71ROp","<p class='textcenter' id='intro'>A group of children painted each of 100 eggs a solid color.</p><p class='sentence'>In the end, even though less than half of the eggs were painted green, nonetheless most of the eggs were painted green.</p>","target",NA,""
-1,-1,"single-stim",14,97080,"0.0-14.0","71ROp"," ","",NA,""
10120,32,"text",0,10123,"0.0-0.0","7CTqq","","",NA,""
40292,74,"single-stim",1,51422,"0.0-1.0","7CTqq","<div class='imageholder'><img class='imagecenter' src='critTrial.png'/><div class='caption'><p style='text-align:center'>Consider the image below. Suppose that a dot is purple if it was painted by ''the purple team'', a dot is green if it was painted by ''the green team'', etc. In this light, does the sentence below the picture accurately describe the picture? When you have made your judgment, press <strong>f</strong> for ''yes'', and <strong>j</strong> for ''no''.</p></div><p class='sentence' id='examplesentence'><strong>The yellow team painted most of the dots.</strong></p></div>","",NA,""
13545,32,"text",2,65967,"0.0-2.0","7CTqq","","",NA,""
11142,32,"text",3,78111,"0.0-3.0","7CTqq","","",NA,""
9222,32,"text",4,88335,"0.0-4.0","7CTqq","","",NA,""
4750,32,"text",5,94085,"0.0-5.0","7CTqq","","",NA,""
5146,32,"text",6,100231,"0.0-6.0","7CTqq","","",NA,""
10920,32,"text",7,112151,"0.0-7.0","7CTqq","","",NA,""
4749,32,"text",8,117900,"0.0-8.0","7CTqq","","",NA,""
10785,74,"single-stim",9,129687,"0.0-9.0","7CTqq","<p class='textcenter' id='intro'>There are 14 Chicago radio stations currently operating.</p><p class='sentence'>Every Chicago radio station might play the blues 24/7, but every Chicago radio station might not play the blues 24/7.</p>","nc2",74,"true"
8915,70,"single-stim",10,139604,"0.0-10.0","7CTqq","<p class='textcenter' id='intro'>A hot new record label released 7 albums last year.</p><p class='sentence'>One particular musician recorded a song that appeared on every one of those albums, even though he didn't record any songs.</p>","c1",70,"true"
5738,74,"single-stim",11,146343,"0.0-11.0","7CTqq","<p class='textcenter' id='intro'>Many people attended a number of meetings.</p><p class='sentence'>The new guy in the department offered an opinion at most of the meetings, and surprisingly everyone listened to those opinions.</p>","nc1",74,"true"
7212,74,"single-stim",12,154557,"0.0-12.0","7CTqq","<p class='textcenter' id='intro'>The postman was tasked with delivering hundreds of pieces of mail on Tuesday.</p><p class='sentence'>After delivering two-thirds of the mail he was tasked with getting out there, he had less than half of his pile left to deliver.</p>","nc2",74,"true"
4808,70,"single-stim",13,160367,"0.0-13.0","7CTqq","<p class='textcenter' id='intro'>A group of children painted each of 100 eggs a solid color.</p><p class='sentence'>In the end, even though less than half of the eggs were painted green, nonetheless most of the eggs were painted green.</p>","target",NA,""
-1,-1,"single-stim",14,161369,"0.0-14.0","7CTqq"," ","",NA,""
12753,32,"text",0,12763,"0.0-0.0","7O5kB","","",NA,""
29826,70,"single-stim",1,43613,"0.0-1.0","7O5kB","<div class='imageholder'><img class='imagecenter' src='critTrial.png'/><div class='caption'><p style='text-align:center'>Consider the image below. Suppose that a dot is purple if it was painted by ''the purple team'', a dot is green if it was painted by ''the green team'', etc. In this light, does the sentence below the picture accurately describe the picture? When you have made your judgment, press <strong>f</strong> for ''yes'', and <strong>j</strong> for ''no''.</p></div><p class='sentence' id='examplesentence'><strong>The yellow team painted most of the dots.</strong></p></div>","",NA,""
11609,32,"text",2,56231,"0.0-2.0","7O5kB","","",NA,""
11592,32,"text",3,68838,"0.0-3.0","7O5kB","","",NA,""
10069,32,"text",4,79911,"0.0-4.0","7O5kB","","",NA,""
8627,32,"text",5,89542,"0.0-5.0","7O5kB","","",NA,""
4894,32,"text",6,95441,"0.0-6.0","7O5kB","","",NA,""
10314,32,"text",7,106773,"0.0-7.0","7O5kB","","",NA,""
6834,32,"text",8,114615,"0.0-8.0","7O5kB","","",NA,""
12088,70,"single-stim",9,127705,"0.0-9.0","7O5kB","<p class='textcenter' id='intro'>A hot new record label released 7 albums last year.</p><p class='sentence'>One particular musician recorded a song that appeared on every one of those albums, even though he didn't record any songs.</p>","c1",70,"true"
15112,74,"single-stim",10,143827,"0.0-10.0","7O5kB","<p class='textcenter' id='intro'>There are 14 Chicago radio stations currently operating.</p><p class='sentence'>Every Chicago radio station might play the blues 24/7, but every Chicago radio station might not play the blues 24/7.</p>","nc2",74,"true"
11089,74,"single-stim",11,155917,"0.0-11.0","7O5kB","<p class='textcenter' id='intro'>The postman was tasked with delivering hundreds of pieces of mail on Tuesday.</p><p class='sentence'>After delivering two-thirds of the mail he was tasked with getting out there, he had less than half of his pile left to deliver.</p>","nc2",74,"true"
10893,74,"single-stim",12,167823,"0.0-12.0","7O5kB","<p class='textcenter' id='intro'>Many people attended a number of meetings.</p><p class='sentence'>The new guy in the department offered an opinion at most of the meetings, and surprisingly everyone listened to those opinions.</p>","nc1",74,"true"
16827,70,"single-stim",13,185663,"0.0-13.0","7O5kB","<p class='textcenter' id='intro'>A group of children painted each of 100 eggs a solid color.</p><p class='sentence'>In the end, even though less than half of the eggs were painted green, nonetheless most of the eggs were painted green.</p>","target",NA,""
-1,-1,"single-stim",14,186678,"0.0-14.0","7O5kB"," ","",NA,""
8881,32,"text",0,8890,"0.0-0.0","8xTd7","","",NA,""
29153,70,"single-stim",1,39062,"0.0-1.0","8xTd7","<div class='imageholder'><img class='imagecenter' src='critTrial.png'/><div class='caption'><p style='text-align:center'>Consider the image below. Suppose that a dot is purple if it was painted by ''the purple team'', a dot is green if it was painted by ''the green team'', etc. In this light, does the sentence below the picture accurately describe the picture? When you have made your judgment, press <strong>f</strong> for ''yes'', and <strong>j</strong> for ''no''.</p></div><p class='sentence' id='examplesentence'><strong>The yellow team painted most of the dots.</strong></p></div>","",NA,""
8951,32,"text",2,49015,"0.0-2.0","8xTd7","","",NA,""
15350,32,"text",3,65367,"0.0-3.0","8xTd7","","",NA,""
5971,32,"text",4,72339,"0.0-4.0","8xTd7","","",NA,""
3681,32,"text",5,77021,"0.0-5.0","8xTd7","","",NA,""
3988,32,"text",6,82009,"0.0-6.0","8xTd7","","",NA,""
5495,32,"text",7,88506,"0.0-7.0","8xTd7","","",NA,""
4489,32,"text",8,93996,"0.0-8.0","8xTd7","","",NA,""
11827,74,"single-stim",9,106827,"0.0-9.0","8xTd7","<p class='textcenter' id='intro'>Many people attended a number of meetings.</p><p class='sentence'>The new guy in the department offered an opinion at most of the meetings, and surprisingly everyone listened to those opinions.</p>","nc1",74,"true"
11981,70,"single-stim",10,119812,"0.0-10.0","8xTd7","<p class='textcenter' id='intro'>A hot new record label released 7 albums last year.</p><p class='sentence'>One particular musician recorded a song that appeared on every one of those albums, even though he didn't record any songs.</p>","c1",70,"true"
6091,70,"single-stim",11,126905,"0.0-11.0","8xTd7","<p class='textcenter' id='intro'>There are 14 Chicago radio stations currently operating.</p><p class='sentence'>Every Chicago radio station might play the blues 24/7, but every Chicago radio station might not play the blues 24/7.</p>","nc2",74,"false"
12709,74,"single-stim",12,140616,"0.0-12.0","8xTd7","<p class='textcenter' id='intro'>The postman was tasked with delivering hundreds of pieces of mail on Tuesday.</p><p class='sentence'>After delivering two-thirds of the mail he was tasked with getting out there, he had less than half of his pile left to deliver.</p>","nc2",74,"true"
13939,70,"single-stim",13,155557,"0.0-13.0","8xTd7","<p class='textcenter' id='intro'>A group of children painted each of 100 eggs a solid color.</p><p class='sentence'>In the end, even though less than half of the eggs were painted green, nonetheless most of the eggs were painted green.</p>","target",NA,""
-1,-1,"single-stim",14,156562,"0.0-14.0","8xTd7"," ","",NA,""
10202,32,"text",0,10208,"0.0-0.0","9otDp","","",NA,""
17146,70,"single-stim",1,28371,"0.0-1.0","9otDp","<div class='imageholder'><img class='imagecenter' src='critTrial.png'/><div class='caption'><p style='text-align:center'>Consider the image below. Suppose that a dot is purple if it was painted by ''the purple team'', a dot is green if it was painted by ''the green team'', etc. In this light, does the sentence below the picture accurately describe the picture? When you have made your judgment, press <strong>f</strong> for ''yes'', and <strong>j</strong> for ''no''.</p></div><p class='sentence' id='examplesentence'><strong>The yellow team painted most of the dots.</strong></p></div>","",NA,""
5581,32,"text",2,34956,"0.0-2.0","9otDp","","",NA,""
12805,32,"text",3,48763,"0.0-3.0","9otDp","","",NA,""
15506,32,"text",4,65270,"0.0-4.0","9otDp","","",NA,""
12671,32,"text",5,78942,"0.0-5.0","9otDp","","",NA,""
6118,32,"text",6,86064,"0.0-6.0","9otDp","","",NA,""
8366,32,"text",7,95430,"0.0-7.0","9otDp","","",NA,""
4678,32,"text",8,101109,"0.0-8.0","9otDp","","",NA,""
9584,70,"single-stim",9,111695,"0.0-9.0","9otDp","<p class='textcenter' id='intro'>There are 14 Chicago radio stations currently operating.</p><p class='sentence'>Every Chicago radio station might play the blues 24/7, but every Chicago radio station might not play the blues 24/7.</p>","nc2",74,"false"
14892,74,"single-stim",10,127589,"0.0-10.0","9otDp","<p class='textcenter' id='intro'>Many people attended a number of meetings.</p><p class='sentence'>The new guy in the department offered an opinion at most of the meetings, and surprisingly everyone listened to those opinions.</p>","nc1",74,"true"
17410,70,"single-stim",11,146001,"0.0-11.0","9otDp","<p class='textcenter' id='intro'>A hot new record label released 7 albums last year.</p><p class='sentence'>One particular musician recorded a song that appeared on every one of those albums, even though he didn't record any songs.</p>","c1",70,"true"
10168,74,"single-stim",12,157170,"0.0-12.0","9otDp","<p class='textcenter' id='intro'>The postman was tasked with delivering hundreds of pieces of mail on Tuesday.</p><p class='sentence'>After delivering two-thirds of the mail he was tasked with getting out there, he had less than half of his pile left to deliver.</p>","nc2",74,"true"
10989,74,"single-stim",13,169161,"0.0-13.0","9otDp","<p class='textcenter' id='intro'>A group of children painted each of 100 eggs a solid color.</p><p class='sentence'>In the end, even though less than half of the eggs were painted green, nonetheless most of the eggs were painted green.</p>","target",NA,""
-1,-1,"single-stim",14,170170,"0.0-14.0","9otDp"," ","",NA,""
6780,32,"text",0,6787,"0.0-0.0","9UpNk","","",NA,""
18278,70,"single-stim",1,26086,"0.0-1.0","9UpNk","<div class='imageholder'><img class='imagecenter' src='critTrial.png'/><div class='caption'><p style='text-align:center'>Consider the image below. Suppose that a dot is purple if it was painted by ''the purple team'', a dot is green if it was painted by ''the green team'', etc. In this light, does the sentence below the picture accurately describe the picture? When you have made your judgment, press <strong>f</strong> for ''yes'', and <strong>j</strong> for ''no''.</p></div><p class='sentence' id='examplesentence'><strong>The yellow team painted most of the dots.</strong></p></div>","",NA,""
5067,32,"text",2,32173,"0.0-2.0","9UpNk","","",NA,""
9874,32,"text",3,43053,"0.0-3.0","9UpNk","","",NA,""
3986,32,"text",4,48060,"0.0-4.0","9UpNk","","",NA,""
7585,32,"text",5,56660,"0.0-5.0","9UpNk","","",NA,""
3159,32,"text",6,60828,"0.0-6.0","9UpNk","","",NA,""
4276,32,"text",7,66116,"0.0-7.0","9UpNk","","",NA,""
2419,32,"text",8,69556,"0.0-8.0","9UpNk","","",NA,""
12354,70,"single-stim",9,82932,"0.0-9.0","9UpNk","<p class='textcenter' id='intro'>There are 14 Chicago radio stations currently operating.</p><p class='sentence'>Every Chicago radio station might play the blues 24/7, but every Chicago radio station might not play the blues 24/7.</p>","nc2",74,"false"
7035,70,"single-stim",10,90988,"0.0-10.0","9UpNk","<p class='textcenter' id='intro'>A hot new record label released 7 albums last year.</p><p class='sentence'>One particular musician recorded a song that appeared on every one of those albums, even though he didn't record any songs.</p>","c1",70,"true"
6564,74,"single-stim",11,98580,"0.0-11.0","9UpNk","<p class='textcenter' id='intro'>The postman was tasked with delivering hundreds of pieces of mail on Tuesday.</p><p class='sentence'>After delivering two-thirds of the mail he was tasked with getting out there, he had less than half of his pile left to deliver.</p>","nc2",74,"true"
8394,74,"single-stim",12,107987,"0.0-12.0","9UpNk","<p class='textcenter' id='intro'>Many people attended a number of meetings.</p><p class='sentence'>The new guy in the department offered an opinion at most of the meetings, and surprisingly everyone listened to those opinions.</p>","nc1",74,"true"
8796,70,"single-stim",13,117811,"0.0-13.0","9UpNk","<p class='textcenter' id='intro'>A group of children painted each of 100 eggs a solid color.</p><p class='sentence'>In the end, even though less than half of the eggs were painted green, nonetheless most of the eggs were painted green.</p>","target",NA,""
-1,-1,"single-stim",14,118830,"0.0-14.0","9UpNk"," ","",NA,""
9728,32,"text",0,9732,"0.0-0.0","A3Np3","","",NA,""
20979,74,"single-stim",1,31721,"0.0-1.0","A3Np3","<div class='imageholder'><img class='imagecenter' src='critTrial.png'/><div class='caption'><p style='text-align:center'>Consider the image below. Suppose that a dot is purple if it was painted by ''the purple team'', a dot is green if it was painted by ''the green team'', etc. In this light, does the sentence below the picture accurately describe the picture? When you have made your judgment, press <strong>f</strong> for ''yes'', and <strong>j</strong> for ''no''.</p></div><p class='sentence' id='examplesentence'><strong>The yellow team painted most of the dots.</strong></p></div>","",NA,""
10709,32,"text",2,43432,"0.0-2.0","A3Np3","","",NA,""
12574,32,"text",3,57007,"0.0-3.0","A3Np3","","",NA,""
16324,32,"text",4,74334,"0.0-4.0","A3Np3","","",NA,""
5735,32,"text",5,81070,"0.0-5.0","A3Np3","","",NA,""
6007,32,"text",6,88078,"0.0-6.0","A3Np3","","",NA,""
7655,32,"text",7,96734,"0.0-7.0","A3Np3","","",NA,""
8200,32,"text",8,105935,"0.0-8.0","A3Np3","","",NA,""
12651,70,"single-stim",9,119591,"0.0-9.0","A3Np3","<p class='textcenter' id='intro'>A hot new record label released 7 albums last year.</p><p class='sentence'>One particular musician recorded a song that appeared on every one of those albums, even though he didn't record any songs.</p>","c1",70,"true"
10276,74,"single-stim",10,130871,"0.0-10.0","A3Np3","<p class='textcenter' id='intro'>There are 14 Chicago radio stations currently operating.</p><p class='sentence'>Every Chicago radio station might play the blues 24/7, but every Chicago radio station might not play the blues 24/7.</p>","nc2",74,"true"
8117,74,"single-stim",11,139989,"0.0-11.0","A3Np3","<p class='textcenter' id='intro'>The postman was tasked with delivering hundreds of pieces of mail on Tuesday.</p><p class='sentence'>After delivering two-thirds of the mail he was tasked with getting out there, he had less than half of his pile left to deliver.</p>","nc2",74,"true"
5111,74,"single-stim",12,146111,"0.0-12.0","A3Np3","<p class='textcenter' id='intro'>Many people attended a number of meetings.</p><p class='sentence'>The new guy in the department offered an opinion at most of the meetings, and surprisingly everyone listened to those opinions.</p>","nc1",74,"true"
7636,70,"single-stim",13,154749,"0.0-13.0","A3Np3","<p class='textcenter' id='intro'>A group of children painted each of 100 eggs a solid color.</p><p class='sentence'>In the end, even though less than half of the eggs were painted green, nonetheless most of the eggs were painted green.</p>","target",NA,""
-1,-1,"single-stim",14,155760,"0.0-14.0","A3Np3"," ","",NA,""
9092,32,"text",0,9097,"0.0-0.0","AGCI7","","",NA,""
21606,74,"single-stim",1,31711,"0.0-1.0","AGCI7","<div class='imageholder'><img class='imagecenter' src='critTrial.png'/><div class='caption'><p style='text-align:center'>Consider the image below. Suppose that a dot is purple if it was painted by ''the purple team'', a dot is green if it was painted by ''the green team'', etc. In this light, does the sentence below the picture accurately describe the picture? When you have made your judgment, press <strong>f</strong> for ''yes'', and <strong>j</strong> for ''no''.</p></div><p class='sentence' id='examplesentence'><strong>The yellow team painted most of the dots.</strong></p></div>","",NA,""
7999,32,"text",2,40712,"0.0-2.0","AGCI7","","",NA,""
11949,32,"text",3,53662,"0.0-3.0","AGCI7","","",NA,""
10040,32,"text",4,64702,"0.0-4.0","AGCI7","","",NA,""
7796,32,"text",5,73500,"0.0-5.0","AGCI7","","",NA,""
5094,32,"text",6,79594,"0.0-6.0","AGCI7","","",NA,""
5702,32,"text",7,86296,"0.0-7.0","AGCI7","","",NA,""
2204,32,"text",8,89500,"0.0-8.0","AGCI7","","",NA,""
10666,70,"single-stim",9,101169,"0.0-9.0","AGCI7","<p class='textcenter' id='intro'>There are 14 Chicago radio stations currently operating.</p><p class='sentence'>Every Chicago radio station might play the blues 24/7, but every Chicago radio station might not play the blues 24/7.</p>","nc2",74,"false"
13609,70,"single-stim",10,115780,"0.0-10.0","AGCI7","<p class='textcenter' id='intro'>A hot new record label released 7 albums last year.</p><p class='sentence'>One particular musician recorded a song that appeared on every one of those albums, even though he didn't record any songs.</p>","c1",70,"true"
9194,74,"single-stim",11,125975,"0.0-11.0","AGCI7","<p class='textcenter' id='intro'>Many people attended a number of meetings.</p><p class='sentence'>The new guy in the department offered an opinion at most of the meetings, and surprisingly everyone listened to those opinions.</p>","nc1",74,"true"
17314,74,"single-stim",12,144290,"0.0-12.0","AGCI7","<p class='textcenter' id='intro'>The postman was tasked with delivering hundreds of pieces of mail on Tuesday.</p><p class='sentence'>After delivering two-thirds of the mail he was tasked with getting out there, he had less than half of his pile left to deliver.</p>","nc2",74,"true"
7399,70,"single-stim",13,152690,"0.0-13.0","AGCI7","<p class='textcenter' id='intro'>A group of children painted each of 100 eggs a solid color.</p><p class='sentence'>In the end, even though less than half of the eggs were painted green, nonetheless most of the eggs were painted green.</p>","target",NA,""
-1,-1,"single-stim",14,153693,"0.0-14.0","AGCI7"," ","",NA,""
291857,32,"text",0,291869,"0.0-0.0","AoV98","","",NA,""
30647,70,"single-stim",1,323531,"0.0-1.0","AoV98","<div class='imageholder'><img class='imagecenter' src='critTrial.png'/><div class='caption'><p style='text-align:center'>Consider the image below. Suppose that a dot is purple if it was painted by ''the purple team'', a dot is green if it was painted by ''the green team'', etc. In this light, does the sentence below the picture accurately describe the picture? When you have made your judgment, press <strong>f</strong> for ''yes'', and <strong>j</strong> for ''no''.</p></div><p class='sentence' id='examplesentence'><strong>The yellow team painted most of the dots.</strong></p></div>","",NA,""
7544,32,"text",2,332077,"0.0-2.0","AoV98","","",NA,""
6110,32,"text",3,339188,"0.0-3.0","AoV98","","",NA,""
4638,32,"text",4,344828,"0.0-4.0","AoV98","","",NA,""
5152,32,"text",5,350981,"0.0-5.0","AoV98","","",NA,""
8048,32,"text",6,360029,"0.0-6.0","AoV98","","",NA,""
6741,32,"text",7,367772,"0.0-7.0","AoV98","","",NA,""
2348,32,"text",8,371121,"0.0-8.0","AoV98","","",NA,""
9279,74,"single-stim",9,381403,"0.0-9.0","AoV98","<p class='textcenter' id='intro'>Many people attended a number of meetings.</p><p class='sentence'>The new guy in the department offered an opinion at most of the meetings, and surprisingly everyone listened to those opinions.</p>","nc1",74,"true"
9515,70,"single-stim",10,391922,"0.0-10.0","AoV98","<p class='textcenter' id='intro'>There are 14 Chicago radio stations currently operating.</p><p class='sentence'>Every Chicago radio station might play the blues 24/7, but every Chicago radio station might not play the blues 24/7.</p>","nc2",74,"false"
4169,70,"single-stim",11,397093,"0.0-11.0","AoV98","<p class='textcenter' id='intro'>A hot new record label released 7 albums last year.</p><p class='sentence'>One particular musician recorded a song that appeared on every one of those albums, even though he didn't record any songs.</p>","c1",70,"true"
4312,74,"single-stim",12,402408,"0.0-12.0","AoV98","<p class='textcenter' id='intro'>The postman was tasked with delivering hundreds of pieces of mail on Tuesday.</p><p class='sentence'>After delivering two-thirds of the mail he was tasked with getting out there, he had less than half of his pile left to deliver.</p>","nc2",74,"true"
12362,70,"single-stim",13,415772,"0.0-13.0","AoV98","<p class='textcenter' id='intro'>A group of children painted each of 100 eggs a solid color.</p><p class='sentence'>In the end, even though less than half of the eggs were painted green, nonetheless most of the eggs were painted green.</p>","target",NA,""
-1,-1,"single-stim",14,416776,"0.0-14.0","AoV98"," ","",NA,""
11932,32,"text",0,11935,"0.0-0.0","aQfCP","","",NA,""
17874,70,"single-stim",1,30822,"0.0-1.0","aQfCP","<div class='imageholder'><img class='imagecenter' src='critTrial.png'/><div class='caption'><p style='text-align:center'>Consider the image below. Suppose that a dot is purple if it was painted by ''the purple team'', a dot is green if it was painted by ''the green team'', etc. In this light, does the sentence below the picture accurately describe the picture? When you have made your judgment, press <strong>f</strong> for ''yes'', and <strong>j</strong> for ''no''.</p></div><p class='sentence' id='examplesentence'><strong>The yellow team painted most of the dots.</strong></p></div>","",NA,""
12825,32,"text",2,44648,"0.0-2.0","aQfCP","","",NA,""
15535,32,"text",3,61184,"0.0-3.0","aQfCP","","",NA,""
8652,32,"text",4,70837,"0.0-4.0","aQfCP","","",NA,""
22539,32,"text",5,94377,"0.0-5.0","aQfCP","","",NA,""
4739,32,"text",6,100117,"0.0-6.0","aQfCP","","",NA,""
7025,32,"text",7,108143,"0.0-7.0","aQfCP","","",NA,""
3084,32,"text",8,112228,"0.0-8.0","aQfCP","","",NA,""
15376,74,"single-stim",9,128606,"0.0-9.0","aQfCP","<p class='textcenter' id='intro'>The postman was tasked with delivering hundreds of pieces of mail on Tuesday.</p><p class='sentence'>After delivering two-thirds of the mail he was tasked with getting out there, he had less than half of his pile left to deliver.</p>","nc2",74,"true"
6023,74,"single-stim",10,135630,"0.0-10.0","aQfCP","<p class='textcenter' id='intro'>Many people attended a number of meetings.</p><p class='sentence'>The new guy in the department offered an opinion at most of the meetings, and surprisingly everyone listened to those opinions.</p>","nc1",74,"true"
4592,70,"single-stim",11,141224,"0.0-11.0","aQfCP","<p class='textcenter' id='intro'>A hot new record label released 7 albums last year.</p><p class='sentence'>One particular musician recorded a song that appeared on every one of those albums, even though he didn't record any songs.</p>","c1",70,"true"
8267,70,"single-stim",12,150492,"0.0-12.0","aQfCP","<p class='textcenter' id='intro'>There are 14 Chicago radio stations currently operating.</p><p class='sentence'>Every Chicago radio station might play the blues 24/7, but every Chicago radio station might not play the blues 24/7.</p>","nc2",74,"false"
6223,70,"single-stim",13,157717,"0.0-13.0","aQfCP","<p class='textcenter' id='intro'>A group of children painted each of 100 eggs a solid color.</p><p class='sentence'>In the end, even though less than half of the eggs were painted green, nonetheless most of the eggs were painted green.</p>","target",NA,""
-1,-1,"single-stim",14,158721,"0.0-14.0","aQfCP"," ","",NA,""
109288,32,"text",0,109308,"0.0-0.0","AwPdr","","",NA,""
21591,70,"single-stim",1,131912,"0.0-1.0","AwPdr","<div class='imageholder'><img class='imagecenter' src='critTrial.png'/><div class='caption'><p style='text-align:center'>Consider the image below. Suppose that a dot is purple if it was painted by ''the purple team'', a dot is green if it was painted by ''the green team'', etc. In this light, does the sentence below the picture accurately describe the picture? When you have made your judgment, press <strong>f</strong> for ''yes'', and <strong>j</strong> for ''no''.</p></div><p class='sentence' id='examplesentence'><strong>The yellow team painted most of the dots.</strong></p></div>","",NA,""
7052,32,"text",2,139972,"0.0-2.0","AwPdr","","",NA,""
11379,32,"text",3,152361,"0.0-3.0","AwPdr","","",NA,""
7843,32,"text",4,161215,"0.0-4.0","AwPdr","","",NA,""
9371,32,"text",5,171602,"0.0-5.0","AwPdr","","",NA,""
3603,32,"text",6,176218,"0.0-6.0","AwPdr","","",NA,""
8546,32,"text",7,185774,"0.0-7.0","AwPdr","","",NA,""
7700,32,"text",8,194480,"0.0-8.0","AwPdr","","",NA,""
8276,74,"single-stim",9,203766,"0.0-9.0","AwPdr","<p class='textcenter' id='intro'>There are 14 Chicago radio stations currently operating.</p><p class='sentence'>Every Chicago radio station might play the blues 24/7, but every Chicago radio station might not play the blues 24/7.</p>","nc2",74,"true"
18260,74,"single-stim",10,223042,"0.0-10.0","AwPdr","<p class='textcenter' id='intro'>A hot new record label released 7 albums last year.</p><p class='sentence'>One particular musician recorded a song that appeared on every one of those albums, even though he didn't record any songs.</p>","c1",70,"false"
15395,74,"single-stim",11,239452,"0.0-11.0","AwPdr","<p class='textcenter' id='intro'>The postman was tasked with delivering hundreds of pieces of mail on Tuesday.</p><p class='sentence'>After delivering two-thirds of the mail he was tasked with getting out there, he had less than half of his pile left to deliver.</p>","nc2",74,"true"
7526,74,"single-stim",12,247987,"0.0-12.0","AwPdr","<p class='textcenter' id='intro'>Many people attended a number of meetings.</p><p class='sentence'>The new guy in the department offered an opinion at most of the meetings, and surprisingly everyone listened to those opinions.</p>","nc1",74,"true"
8942,74,"single-stim",13,257956,"0.0-13.0","AwPdr","<p class='textcenter' id='intro'>A group of children painted each of 100 eggs a solid color.</p><p class='sentence'>In the end, even though less than half of the eggs were painted green, nonetheless most of the eggs were painted green.</p>","target",NA,""
-1,-1,"single-stim",14,258964,"0.0-14.0","AwPdr"," ","",NA,""
12663,32,"text",0,12669,"0.0-0.0","aWSc4","","",NA,""
14520,70,"single-stim",1,28197,"0.0-1.0","aWSc4","<div class='imageholder'><img class='imagecenter' src='critTrial.png'/><div class='caption'><p style='text-align:center'>Consider the image below. Suppose that a dot is purple if it was painted by ''the purple team'', a dot is green if it was painted by ''the green team'', etc. In this light, does the sentence below the picture accurately describe the picture? When you have made your judgment, press <strong>f</strong> for ''yes'', and <strong>j</strong> for ''no''.</p></div><p class='sentence' id='examplesentence'><strong>The yellow team painted most of the dots.</strong></p></div>","",NA,""
10001,32,"text",2,39202,"0.0-2.0","aWSc4","","",NA,""
10312,32,"text",3,50516,"0.0-3.0","aWSc4","","",NA,""
8623,32,"text",4,60139,"0.0-4.0","aWSc4","","",NA,""
16618,32,"text",5,77759,"0.0-5.0","aWSc4","","",NA,""
19849,32,"text",6,98610,"0.0-6.0","aWSc4","","",NA,""
13409,32,"text",7,113020,"0.0-7.0","aWSc4","","",NA,""
3768,32,"text",8,117789,"0.0-8.0","aWSc4","","",NA,""
16182,74,"single-stim",9,134974,"0.0-9.0","aWSc4","<p class='textcenter' id='intro'>There are 14 Chicago radio stations currently operating.</p><p class='sentence'>Every Chicago radio station might play the blues 24/7, but every Chicago radio station might not play the blues 24/7.</p>","nc2",74,"true"
8984,74,"single-stim",10,144960,"0.0-10.0","aWSc4","<p class='textcenter' id='intro'>Many people attended a number of meetings.</p><p class='sentence'>The new guy in the department offered an opinion at most of the meetings, and surprisingly everyone listened to those opinions.</p>","nc1",74,"true"
13155,70,"single-stim",11,159116,"0.0-11.0","aWSc4","<p class='textcenter' id='intro'>A hot new record label released 7 albums last year.</p><p class='sentence'>One particular musician recorded a song that appeared on every one of those albums, even though he didn't record any songs.</p>","c1",70,"true"
12374,74,"single-stim",12,172492,"0.0-12.0","aWSc4","<p class='textcenter' id='intro'>The postman was tasked with delivering hundreds of pieces of mail on Tuesday.</p><p class='sentence'>After delivering two-thirds of the mail he was tasked with getting out there, he had less than half of his pile left to deliver.</p>","nc2",74,"true"
8084,70,"single-stim",13,181577,"0.0-13.0","aWSc4","<p class='textcenter' id='intro'>A group of children painted each of 100 eggs a solid color.</p><p class='sentence'>In the end, even though less than half of the eggs were painted green, nonetheless most of the eggs were painted green.</p>","target",NA,""
-1,-1,"single-stim",14,182584,"0.0-14.0","aWSc4"," ","",NA,""
29189,32,"text",0,29197,"0.0-0.0","c5ha5","","",NA,""
15884,70,"single-stim",1,46096,"0.0-1.0","c5ha5","<div class='imageholder'><img class='imagecenter' src='critTrial.png'/><div class='caption'><p style='text-align:center'>Consider the image below. Suppose that a dot is purple if it was painted by ''the purple team'', a dot is green if it was painted by ''the green team'', etc. In this light, does the sentence below the picture accurately describe the picture? When you have made your judgment, press <strong>f</strong> for ''yes'', and <strong>j</strong> for ''no''.</p></div><p class='sentence' id='examplesentence'><strong>The yellow team painted most of the dots.</strong></p></div>","",NA,""
7102,32,"text",2,54201,"0.0-2.0","c5ha5","","",NA,""
18750,32,"text",3,73953,"0.0-3.0","c5ha5","","",NA,""
7172,32,"text",4,82127,"0.0-4.0","c5ha5","","",NA,""
10435,32,"text",5,93562,"0.0-5.0","c5ha5","","",NA,""
8485,32,"text",6,103047,"0.0-6.0","c5ha5","","",NA,""
7961,32,"text",7,112010,"0.0-7.0","c5ha5","","",NA,""
2002,32,"text",8,115015,"0.0-8.0","c5ha5","","",NA,""
9255,74,"single-stim",9,125273,"0.0-9.0","c5ha5","<p class='textcenter' id='intro'>Many people attended a number of meetings.</p><p class='sentence'>The new guy in the department offered an opinion at most of the meetings, and surprisingly everyone listened to those opinions.</p>","nc1",74,"true"
6165,74,"single-stim",10,132440,"0.0-10.0","c5ha5","<p class='textcenter' id='intro'>The postman was tasked with delivering hundreds of pieces of mail on Tuesday.</p><p class='sentence'>After delivering two-thirds of the mail he was tasked with getting out there, he had less than half of his pile left to deliver.</p>","nc2",74,"true"
5286,70,"single-stim",11,138731,"0.0-11.0","c5ha5","<p class='textcenter' id='intro'>A hot new record label released 7 albums last year.</p><p class='sentence'>One particular musician recorded a song that appeared on every one of those albums, even though he didn't record any songs.</p>","c1",70,"true"
6939,70,"single-stim",12,146672,"0.0-12.0","c5ha5","<p class='textcenter' id='intro'>There are 14 Chicago radio stations currently operating.</p><p class='sentence'>Every Chicago radio station might play the blues 24/7, but every Chicago radio station might not play the blues 24/7.</p>","nc2",74,"false"
9377,70,"single-stim",13,157050,"0.0-13.0","c5ha5","<p class='textcenter' id='intro'>A group of children painted each of 100 eggs a solid color.</p><p class='sentence'>In the end, even though less than half of the eggs were painted green, nonetheless most of the eggs were painted green.</p>","target",NA,""
-1,-1,"single-stim",14,158054,"0.0-14.0","c5ha5"," ","",NA,""
5227,32,"text",0,5233,"0.0-0.0","cNPm7","","",NA,""
6520,70,"single-stim",1,12764,"0.0-1.0","cNPm7","<div class='imageholder'><img class='imagecenter' src='critTrial.png'/><div class='caption'><p style='text-align:center'>Consider the image below. Suppose that a dot is purple if it was painted by ''the purple team'', a dot is green if it was painted by ''the green team'', etc. In this light, does the sentence below the picture accurately describe the picture? When you have made your judgment, press <strong>f</strong> for ''yes'', and <strong>j</strong> for ''no''.</p></div><p class='sentence' id='examplesentence'><strong>The yellow team painted most of the dots.</strong></p></div>","",NA,""
4021,32,"text",2,17788,"0.0-2.0","cNPm7","","",NA,""
15117,32,"text",3,33908,"0.0-3.0","cNPm7","","",NA,""
5875,32,"text",4,40785,"0.0-4.0","cNPm7","","",NA,""
4552,32,"text",5,46339,"0.0-5.0","cNPm7","","",NA,""
12115,32,"text",6,59456,"0.0-6.0","cNPm7","","",NA,""
1176,32,"text",7,61635,"0.0-7.0","cNPm7","","",NA,""
1707,32,"text",8,64344,"0.0-8.0","cNPm7","","",NA,""
13031,74,"single-stim",9,78378,"0.0-9.0","cNPm7","<p class='textcenter' id='intro'>The postman was tasked with delivering hundreds of pieces of mail on Tuesday.</p><p class='sentence'>After delivering two-thirds of the mail he was tasked with getting out there, he had less than half of his pile left to deliver.</p>","nc2",74,"true"
11051,70,"single-stim",10,90433,"0.0-10.0","cNPm7","<p class='textcenter' id='intro'>There are 14 Chicago radio stations currently operating.</p><p class='sentence'>Every Chicago radio station might play the blues 24/7, but every Chicago radio station might not play the blues 24/7.</p>","nc2",74,"false"
7059,70,"single-stim",11,98494,"0.0-11.0","cNPm7","<p class='textcenter' id='intro'>Many people attended a number of meetings.</p><p class='sentence'>The new guy in the department offered an opinion at most of the meetings, and surprisingly everyone listened to those opinions.</p>","nc1",74,"false"
749,74,"single-stim",12,100247,"0.0-12.0","cNPm7","<p class='textcenter' id='intro'>A hot new record label released 7 albums last year.</p><p class='sentence'>One particular musician recorded a song that appeared on every one of those albums, even though he didn't record any songs.</p>","c1",70,"false"
519,74,"single-stim",13,101768,"0.0-13.0","cNPm7","<p class='textcenter' id='intro'>A group of children painted each of 100 eggs a solid color.</p><p class='sentence'>In the end, even though less than half of the eggs were painted green, nonetheless most of the eggs were painted green.</p>","target",NA,""
-1,-1,"single-stim",14,102776,"0.0-14.0","cNPm7"," ","",NA,""
2154104,32,"text",0,2154109,"0.0-0.0","CxJjd","","",NA,""
635758,70,"single-stim",1,2790877,"0.0-1.0","CxJjd","<div class='imageholder'><img class='imagecenter' src='critTrial.png'/><div class='caption'><p style='text-align:center'>Consider the image below. Suppose that a dot is purple if it was painted by ''the purple team'', a dot is green if it was painted by ''the green team'', etc. In this light, does the sentence below the picture accurately describe the picture? When you have made your judgment, press <strong>f</strong> for ''yes'', and <strong>j</strong> for ''no''.</p></div><p class='sentence' id='examplesentence'><strong>The yellow team painted most of the dots.</strong></p></div>","",NA,""
8260,32,"text",2,2800140,"0.0-2.0","CxJjd","","",NA,""
12503,32,"text",3,2813644,"0.0-3.0","CxJjd","","",NA,""
7798,32,"text",4,2822442,"0.0-4.0","CxJjd","","",NA,""
20688,32,"text",5,2844131,"0.0-5.0","CxJjd","","",NA,""
19880,32,"text",6,2865011,"0.0-6.0","CxJjd","","",NA,""
8671,32,"text",7,2874683,"0.0-7.0","CxJjd","","",NA,""
3774,32,"text",8,2879458,"0.0-8.0","CxJjd","","",NA,""
15830,74,"single-stim",9,2896291,"0.0-9.0","CxJjd","<p class='textcenter' id='intro'>The postman was tasked with delivering hundreds of pieces of mail on Tuesday.</p><p class='sentence'>After delivering two-thirds of the mail he was tasked with getting out there, he had less than half of his pile left to deliver.</p>","nc2",74,"true"
8998,74,"single-stim",10,2906291,"0.0-10.0","CxJjd","<p class='textcenter' id='intro'>Many people attended a number of meetings.</p><p class='sentence'>The new guy in the department offered an opinion at most of the meetings, and surprisingly everyone listened to those opinions.</p>","nc1",74,"true"
13663,70,"single-stim",11,2920955,"0.0-11.0","CxJjd","<p class='textcenter' id='intro'>There are 14 Chicago radio stations currently operating.</p><p class='sentence'>Every Chicago radio station might play the blues 24/7, but every Chicago radio station might not play the blues 24/7.</p>","nc2",74,"false"
22438,70,"single-stim",12,2944395,"0.0-12.0","CxJjd","<p class='textcenter' id='intro'>A hot new record label released 7 albums last year.</p><p class='sentence'>One particular musician recorded a song that appeared on every one of those albums, even though he didn't record any songs.</p>","c1",70,"true"
6117,70,"single-stim",13,2951514,"0.0-13.0","CxJjd","<p class='textcenter' id='intro'>A group of children painted each of 100 eggs a solid color.</p><p class='sentence'>In the end, even though less than half of the eggs were painted green, nonetheless most of the eggs were painted green.</p>","target",NA,""
-1,-1,"single-stim",14,2952517,"0.0-14.0","CxJjd"," ","",NA,""
2501,32,"text",0,2507,"0.0-0.0","df0hW","","",NA,""
2996,70,"single-stim",1,6514,"0.0-1.0","df0hW","<div class='imageholder'><img class='imagecenter' src='critTrial.png'/><div class='caption'><p style='text-align:center'>Consider the image below. Suppose that a dot is purple if it was painted by ''the purple team'', a dot is green if it was painted by ''the green team'', etc. In this light, does the sentence below the picture accurately describe the picture? When you have made your judgment, press <strong>f</strong> for ''yes'', and <strong>j</strong> for ''no''.</p></div><p class='sentence' id='examplesentence'><strong>The yellow team painted most of the dots.</strong></p></div>","",NA,""
1428,32,"text",2,8945,"0.0-2.0","df0hW","","",NA,""
421,32,"text",3,10368,"0.0-3.0","df0hW","","",NA,""
608,32,"text",4,11976,"0.0-4.0","df0hW","","",NA,""
912,32,"text",5,13889,"0.0-5.0","df0hW","","",NA,""
855,32,"text",6,15744,"0.0-6.0","df0hW","","",NA,""
584,32,"text",7,17329,"0.0-7.0","df0hW","","",NA,""
352,32,"text",8,18681,"0.0-8.0","df0hW","","",NA,""
2108,74,"single-stim",9,21794,"0.0-9.0","df0hW","<p class='textcenter' id='intro'>A hot new record label released 7 albums last year.</p><p class='sentence'>One particular musician recorded a song that appeared on every one of those albums, even though he didn't record any songs.</p>","c1",70,"false"
1884,70,"single-stim",10,24681,"0.0-10.0","df0hW","<p class='textcenter' id='intro'>The postman was tasked with delivering hundreds of pieces of mail on Tuesday.</p><p class='sentence'>After delivering two-thirds of the mail he was tasked with getting out there, he had less than half of his pile left to deliver.</p>","nc2",74,"false"
4991,74,"single-stim",11,30674,"0.0-11.0","df0hW","<p class='textcenter' id='intro'>Many people attended a number of meetings.</p><p class='sentence'>The new guy in the department offered an opinion at most of the meetings, and surprisingly everyone listened to those opinions.</p>","nc1",74,"true"
399,70,"single-stim",12,32073,"0.0-12.0","df0hW","<p class='textcenter' id='intro'>There are 14 Chicago radio stations currently operating.</p><p class='sentence'>Every Chicago radio station might play the blues 24/7, but every Chicago radio station might not play the blues 24/7.</p>","nc2",74,"false"
590,70,"single-stim",13,33665,"0.0-13.0","df0hW","<p class='textcenter' id='intro'>A group of children painted each of 100 eggs a solid color.</p><p class='sentence'>In the end, even though less than half of the eggs were painted green, nonetheless most of the eggs were painted green.</p>","target",NA,""
-1,-1,"single-stim",14,34669,"0.0-14.0","df0hW"," ","",NA,""
19151,32,"text",0,19153,"0.0-0.0","DGgIu","","",NA,""
12417,70,"single-stim",1,32592,"0.0-1.0","DGgIu","<div class='imageholder'><img class='imagecenter' src='critTrial.png'/><div class='caption'><p style='text-align:center'>Consider the image below. Suppose that a dot is purple if it was painted by ''the purple team'', a dot is green if it was painted by ''the green team'', etc. In this light, does the sentence below the picture accurately describe the picture? When you have made your judgment, press <strong>f</strong> for ''yes'', and <strong>j</strong> for ''no''.</p></div><p class='sentence' id='examplesentence'><strong>The yellow team painted most of the dots.</strong></p></div>","",NA,""
7336,32,"text",2,40943,"0.0-2.0","DGgIu","","",NA,""
12157,32,"text",3,54104,"0.0-3.0","DGgIu","","",NA,""
4528,32,"text",4,59647,"0.0-4.0","DGgIu","","",NA,""
6457,32,"text",5,67120,"0.0-5.0","DGgIu","","",NA,""
3531,32,"text",6,71655,"0.0-6.0","DGgIu","","",NA,""
4526,32,"text",7,77192,"0.0-7.0","DGgIu","","",NA,""
3547,32,"text",8,81743,"0.0-8.0","DGgIu","","",NA,""
8136,74,"single-stim",9,90895,"0.0-9.0","DGgIu","<p class='textcenter' id='intro'>Many people attended a number of meetings.</p><p class='sentence'>The new guy in the department offered an opinion at most of the meetings, and surprisingly everyone listened to those opinions.</p>","nc1",74,"true"
5798,70,"single-stim",10,97696,"0.0-10.0","DGgIu","<p class='textcenter' id='intro'>A hot new record label released 7 albums last year.</p><p class='sentence'>One particular musician recorded a song that appeared on every one of those albums, even though he didn't record any songs.</p>","c1",70,"true"
8064,74,"single-stim",11,106776,"0.0-11.0","DGgIu","<p class='textcenter' id='intro'>There are 14 Chicago radio stations currently operating.</p><p class='sentence'>Every Chicago radio station might play the blues 24/7, but every Chicago radio station might not play the blues 24/7.</p>","nc2",74,"true"
7455,70,"single-stim",12,115247,"0.0-12.0","DGgIu","<p class='textcenter' id='intro'>The postman was tasked with delivering hundreds of pieces of mail on Tuesday.</p><p class='sentence'>After delivering two-thirds of the mail he was tasked with getting out there, he had less than half of his pile left to deliver.</p>","nc2",74,"false"
10218,70,"single-stim",13,126479,"0.0-13.0","DGgIu","<p class='textcenter' id='intro'>A group of children painted each of 100 eggs a solid color.</p><p class='sentence'>In the end, even though less than half of the eggs were painted green, nonetheless most of the eggs were painted green.</p>","target",NA,""
-1,-1,"single-stim",14,127507,"0.0-14.0","DGgIu"," ","",NA,""
13056,32,"text",0,13057,"0.0-0.0","DgP79","","",NA,""
19211,70,"single-stim",1,33280,"0.0-1.0","DgP79","<div class='imageholder'><img class='imagecenter' src='critTrial.png'/><div class='caption'><p style='text-align:center'>Consider the image below. Suppose that a dot is purple if it was painted by ''the purple team'', a dot is green if it was painted by ''the green team'', etc. In this light, does the sentence below the picture accurately describe the picture? When you have made your judgment, press <strong>f</strong> for ''yes'', and <strong>j</strong> for ''no''.</p></div><p class='sentence' id='examplesentence'><strong>The yellow team painted most of the dots.</strong></p></div>","",NA,""
12036,32,"text",2,46326,"0.0-2.0","DgP79","","",NA,""
11680,32,"text",3,59017,"0.0-3.0","DgP79","","",NA,""
12798,32,"text",4,72825,"0.0-4.0","DgP79","","",NA,""
13169,32,"text",5,87004,"0.0-5.0","DgP79","","",NA,""
16906,32,"text",6,104918,"0.0-6.0","DgP79","","",NA,""
9084,32,"text",7,115011,"0.0-7.0","DgP79","","",NA,""
6306,32,"text",8,122327,"0.0-8.0","DgP79","","",NA,""
17011,74,"single-stim",9,140341,"0.0-9.0","DgP79","<p class='textcenter' id='intro'>The postman was tasked with delivering hundreds of pieces of mail on Tuesday.</p><p class='sentence'>After delivering two-thirds of the mail he was tasked with getting out there, he had less than half of his pile left to deliver.</p>","nc2",74,"true"
17434,74,"single-stim",10,158776,"0.0-10.0","DgP79","<p class='textcenter' id='intro'>Many people attended a number of meetings.</p><p class='sentence'>The new guy in the department offered an opinion at most of the meetings, and surprisingly everyone listened to those opinions.</p>","nc1",74,"true"
14160,74,"single-stim",11,173944,"0.0-11.0","DgP79","<p class='textcenter' id='intro'>There are 14 Chicago radio stations currently operating.</p><p class='sentence'>Every Chicago radio station might play the blues 24/7, but every Chicago radio station might not play the blues 24/7.</p>","nc2",74,"true"
10053,70,"single-stim",12,185012,"0.0-12.0","DgP79","<p class='textcenter' id='intro'>A hot new record label released 7 albums last year.</p><p class='sentence'>One particular musician recorded a song that appeared on every one of those albums, even though he didn't record any songs.</p>","c1",70,"true"
10686,74,"single-stim",13,196700,"0.0-13.0","DgP79","<p class='textcenter' id='intro'>A group of children painted each of 100 eggs a solid color.</p><p class='sentence'>In the end, even though less than half of the eggs were painted green, nonetheless most of the eggs were painted green.</p>","target",NA,""
-1,-1,"single-stim",14,197708,"0.0-14.0","DgP79"," ","",NA,""
12469,32,"text",0,12471,"0.0-0.0","DmqPw","","",NA,""
10529,74,"single-stim",1,24014,"0.0-1.0","DmqPw","<div class='imageholder'><img class='imagecenter' src='critTrial.png'/><div class='caption'><p style='text-align:center'>Consider the image below. Suppose that a dot is purple if it was painted by ''the purple team'', a dot is green if it was painted by ''the green team'', etc. In this light, does the sentence below the picture accurately describe the picture? When you have made your judgment, press <strong>f</strong> for ''yes'', and <strong>j</strong> for ''no''.</p></div><p class='sentence' id='examplesentence'><strong>The yellow team painted most of the dots.</strong></p></div>","",NA,""
26174,32,"text",2,51199,"0.0-2.0","DmqPw","","",NA,""
18660,32,"text",3,70871,"0.0-3.0","DmqPw","","",NA,""
10509,32,"text",4,82390,"0.0-4.0","DmqPw","","",NA,""
12836,32,"text",5,96229,"0.0-5.0","DmqPw","","",NA,""
8372,32,"text",6,105615,"0.0-6.0","DmqPw","","",NA,""
8863,32,"text",7,115480,"0.0-7.0","DmqPw","","",NA,""
4780,32,"text",8,121269,"0.0-8.0","DmqPw","","",NA,""
11181,70,"single-stim",9,133459,"0.0-9.0","DmqPw","<p class='textcenter' id='intro'>A hot new record label released 7 albums last year.</p><p class='sentence'>One particular musician recorded a song that appeared on every one of those albums, even though he didn't record any songs.</p>","c1",70,"true"
9308,74,"single-stim",10,143782,"0.0-10.0","DmqPw","<p class='textcenter' id='intro'>Many people attended a number of meetings.</p><p class='sentence'>The new guy in the department offered an opinion at most of the meetings, and surprisingly everyone listened to those opinions.</p>","nc1",74,"true"
10141,70,"single-stim",11,154926,"0.0-11.0","DmqPw","<p class='textcenter' id='intro'>There are 14 Chicago radio stations currently operating.</p><p class='sentence'>Every Chicago radio station might play the blues 24/7, but every Chicago radio station might not play the blues 24/7.</p>","nc2",74,"false"
21098,74,"single-stim",12,177036,"0.0-12.0","DmqPw","<p class='textcenter' id='intro'>The postman was tasked with delivering hundreds of pieces of mail on Tuesday.</p><p class='sentence'>After delivering two-thirds of the mail he was tasked with getting out there, he had less than half of his pile left to deliver.</p>","nc2",74,"true"
23827,74,"single-stim",13,201866,"0.0-13.0","DmqPw","<p class='textcenter' id='intro'>A group of children painted each of 100 eggs a solid color.</p><p class='sentence'>In the end, even though less than half of the eggs were painted green, nonetheless most of the eggs were painted green.</p>","target",NA,""
-1,-1,"single-stim",14,202871,"0.0-14.0","DmqPw"," ","",NA,""
9124,32,"text",0,9127,"0.0-0.0","dQ7Qx","","",NA,""
16443,70,"single-stim",1,26573,"0.0-1.0","dQ7Qx","<div class='imageholder'><img class='imagecenter' src='critTrial.png'/><div class='caption'><p style='text-align:center'>Consider the image below. Suppose that a dot is purple if it was painted by ''the purple team'', a dot is green if it was painted by ''the green team'', etc. In this light, does the sentence below the picture accurately describe the picture? When you have made your judgment, press <strong>f</strong> for ''yes'', and <strong>j</strong> for ''no''.</p></div><p class='sentence' id='examplesentence'><strong>The yellow team painted most of the dots.</strong></p></div>","",NA,""
2071,32,"text",2,29645,"0.0-2.0","dQ7Qx","","",NA,""
6743,32,"text",3,37398,"0.0-3.0","dQ7Qx","","",NA,""
2354,32,"text",4,40757,"0.0-4.0","dQ7Qx","","",NA,""
1567,32,"text",5,43325,"0.0-5.0","dQ7Qx","","",NA,""
1511,32,"text",6,45837,"0.0-6.0","dQ7Qx","","",NA,""
272,32,"text",7,47109,"0.0-7.0","dQ7Qx","","",NA,""
345,32,"text",8,48454,"0.0-8.0","dQ7Qx","","",NA,""
5478,70,"single-stim",9,54933,"0.0-9.0","dQ7Qx","<p class='textcenter' id='intro'>The postman was tasked with delivering hundreds of pieces of mail on Tuesday.</p><p class='sentence'>After delivering two-thirds of the mail he was tasked with getting out there, he had less than half of his pile left to deliver.</p>","nc2",74,"false"
3864,74,"single-stim",10,59798,"0.0-10.0","dQ7Qx","<p class='textcenter' id='intro'>A hot new record label released 7 albums last year.</p><p class='sentence'>One particular musician recorded a song that appeared on every one of those albums, even though he didn't record any songs.</p>","c1",70,"false"
31967,70,"single-stim",11,92766,"0.0-11.0","dQ7Qx","<p class='textcenter' id='intro'>There are 14 Chicago radio stations currently operating.</p><p class='sentence'>Every Chicago radio station might play the blues 24/7, but every Chicago radio station might not play the blues 24/7.</p>","nc2",74,"false"
24818,74,"single-stim",12,118590,"0.0-12.0","dQ7Qx","<p class='textcenter' id='intro'>Many people attended a number of meetings.</p><p class='sentence'>The new guy in the department offered an opinion at most of the meetings, and surprisingly everyone listened to those opinions.</p>","nc1",74,"true"
5520,74,"single-stim",13,125110,"0.0-13.0","dQ7Qx","<p class='textcenter' id='intro'>A group of children painted each of 100 eggs a solid color.</p><p class='sentence'>In the end, even though less than half of the eggs were painted green, nonetheless most of the eggs were painted green.</p>","target",NA,""
-1,-1,"single-stim",14,126112,"0.0-14.0","dQ7Qx"," ","",NA,""
10680,32,"text",0,10680,"0.0-0.0","dSZ0z","","",NA,""
22224,70,"single-stim",1,33912,"0.0-1.0","dSZ0z","<div class='imageholder'><img class='imagecenter' src='critTrial.png'/><div class='caption'><p style='text-align:center'>Consider the image below. Suppose that a dot is purple if it was painted by ''the purple team'', a dot is green if it was painted by ''the green team'', etc. In this light, does the sentence below the picture accurately describe the picture? When you have made your judgment, press <strong>f</strong> for ''yes'', and <strong>j</strong> for ''no''.</p></div><p class='sentence' id='examplesentence'><strong>The yellow team painted most of the dots.</strong></p></div>","",NA,""
13939,32,"text",2,48863,"0.0-2.0","dSZ0z","","",NA,""
11200,32,"text",3,61071,"0.0-3.0","dSZ0z","","",NA,""
14526,32,"text",4,76611,"0.0-4.0","dSZ0z","","",NA,""
13638,32,"text",5,91255,"0.0-5.0","dSZ0z","","",NA,""
5591,32,"text",6,97847,"0.0-6.0","dSZ0z","","",NA,""
11636,32,"text",7,110488,"0.0-7.0","dSZ0z","","",NA,""
13881,32,"text",8,125379,"0.0-8.0","dSZ0z","","",NA,""
14839,74,"single-stim",9,141226,"0.0-9.0","dSZ0z","<p class='textcenter' id='intro'>Many people attended a number of meetings.</p><p class='sentence'>The new guy in the department offered an opinion at most of the meetings, and surprisingly everyone listened to those opinions.</p>","nc1",74,"true"
11671,70,"single-stim",10,153910,"0.0-10.0","dSZ0z","<p class='textcenter' id='intro'>There are 14 Chicago radio stations currently operating.</p><p class='sentence'>Every Chicago radio station might play the blues 24/7, but every Chicago radio station might not play the blues 24/7.</p>","nc2",74,"false"
11747,74,"single-stim",11,166675,"0.0-11.0","dSZ0z","<p class='textcenter' id='intro'>The postman was tasked with delivering hundreds of pieces of mail on Tuesday.</p><p class='sentence'>After delivering two-thirds of the mail he was tasked with getting out there, he had less than half of his pile left to deliver.</p>","nc2",74,"true"
9810,70,"single-stim",12,177492,"0.0-12.0","dSZ0z","<p class='textcenter' id='intro'>A hot new record label released 7 albums last year.</p><p class='sentence'>One particular musician recorded a song that appeared on every one of those albums, even though he didn't record any songs.</p>","c1",70,"true"
9939,70,"single-stim",13,188438,"0.0-13.0","dSZ0z","<p class='textcenter' id='intro'>A group of children painted each of 100 eggs a solid color.</p><p class='sentence'>In the end, even though less than half of the eggs were painted green, nonetheless most of the eggs were painted green.</p>","target",NA,""
-1,-1,"single-stim",14,189448,"0.0-14.0","dSZ0z"," ","",NA,""
7599,32,"text",0,7610,"0.0-0.0","E9gW7","","",NA,""
37091,74,"single-stim",1,45721,"0.0-1.0","E9gW7","<div class='imageholder'><img class='imagecenter' src='critTrial.png'/><div class='caption'><p style='text-align:center'>Consider the image below. Suppose that a dot is purple if it was painted by ''the purple team'', a dot is green if it was painted by ''the green team'', etc. In this light, does the sentence below the picture accurately describe the picture? When you have made your judgment, press <strong>f</strong> for ''yes'', and <strong>j</strong> for ''no''.</p></div><p class='sentence' id='examplesentence'><strong>The yellow team painted most of the dots.</strong></p></div>","",NA,""
8810,32,"text",2,55536,"0.0-2.0","E9gW7","","",NA,""
10083,32,"text",3,66620,"0.0-3.0","E9gW7","","",NA,""
6923,32,"text",4,74545,"0.0-4.0","E9gW7","","",NA,""
5971,32,"text",5,81516,"0.0-5.0","E9gW7","","",NA,""
5006,32,"text",6,87523,"0.0-6.0","E9gW7","","",NA,""
6916,32,"text",7,95441,"0.0-7.0","E9gW7","","",NA,""
5346,32,"text",8,101788,"0.0-8.0","E9gW7","","",NA,""
17366,70,"single-stim",9,120160,"0.0-9.0","E9gW7","<p class='textcenter' id='intro'>A hot new record label released 7 albums last year.</p><p class='sentence'>One particular musician recorded a song that appeared on every one of those albums, even though he didn't record any songs.</p>","c1",70,"true"
18853,70,"single-stim",10,140018,"0.0-10.0","E9gW7","<p class='textcenter' id='intro'>There are 14 Chicago radio stations currently operating.</p><p class='sentence'>Every Chicago radio station might play the blues 24/7, but every Chicago radio station might not play the blues 24/7.</p>","nc2",74,"false"
15457,74,"single-stim",11,156478,"0.0-11.0","E9gW7","<p class='textcenter' id='intro'>Many people attended a number of meetings.</p><p class='sentence'>The new guy in the department offered an opinion at most of the meetings, and surprisingly everyone listened to those opinions.</p>","nc1",74,"true"
21191,74,"single-stim",12,178673,"0.0-12.0","E9gW7","<p class='textcenter' id='intro'>The postman was tasked with delivering hundreds of pieces of mail on Tuesday.</p><p class='sentence'>After delivering two-thirds of the mail he was tasked with getting out there, he had less than half of his pile left to deliver.</p>","nc2",74,"true"
9529,70,"single-stim",13,189205,"0.0-13.0","E9gW7","<p class='textcenter' id='intro'>A group of children painted each of 100 eggs a solid color.</p><p class='sentence'>In the end, even though less than half of the eggs were painted green, nonetheless most of the eggs were painted green.</p>","target",NA,""
-1,-1,"single-stim",14,190209,"0.0-14.0","E9gW7"," ","",NA,""
7412,32,"text",0,7416,"0.0-0.0","EDAeT","","",NA,""
18903,74,"single-stim",1,27331,"0.0-1.0","EDAeT","<div class='imageholder'><img class='imagecenter' src='critTrial.png'/><div class='caption'><p style='text-align:center'>Consider the image below. Suppose that a dot is purple if it was painted by ''the purple team'', a dot is green if it was painted by ''the green team'', etc. In this light, does the sentence below the picture accurately describe the picture? When you have made your judgment, press <strong>f</strong> for ''yes'', and <strong>j</strong> for ''no''.</p></div><p class='sentence' id='examplesentence'><strong>The yellow team painted most of the dots.</strong></p></div>","",NA,""
8108,32,"text",2,36446,"0.0-2.0","EDAeT","","",NA,""
11475,32,"text",3,48923,"0.0-3.0","EDAeT","","",NA,""
8943,32,"text",4,58869,"0.0-4.0","EDAeT","","",NA,""
6870,32,"text",5,66741,"0.0-5.0","EDAeT","","",NA,""
4461,32,"text",6,72207,"0.0-6.0","EDAeT","","",NA,""
10857,32,"text",7,84065,"0.0-7.0","EDAeT","","",NA,""
3460,32,"text",8,88528,"0.0-8.0","EDAeT","","",NA,""
11773,70,"single-stim",9,101307,"0.0-9.0","EDAeT","<p class='textcenter' id='intro'>A hot new record label released 7 albums last year.</p><p class='sentence'>One particular musician recorded a song that appeared on every one of those albums, even though he didn't record any songs.</p>","c1",70,"true"
16674,74,"single-stim",10,118984,"0.0-10.0","EDAeT","<p class='textcenter' id='intro'>The postman was tasked with delivering hundreds of pieces of mail on Tuesday.</p><p class='sentence'>After delivering two-thirds of the mail he was tasked with getting out there, he had less than half of his pile left to deliver.</p>","nc2",74,"true"
10160,74,"single-stim",11,130147,"0.0-11.0","EDAeT","<p class='textcenter' id='intro'>Many people attended a number of meetings.</p><p class='sentence'>The new guy in the department offered an opinion at most of the meetings, and surprisingly everyone listened to those opinions.</p>","nc1",74,"true"
8020,74,"single-stim",12,139170,"0.0-12.0","EDAeT","<p class='textcenter' id='intro'>There are 14 Chicago radio stations currently operating.</p><p class='sentence'>Every Chicago radio station might play the blues 24/7, but every Chicago radio station might not play the blues 24/7.</p>","nc2",74,"true"
10658,70,"single-stim",13,150831,"0.0-13.0","EDAeT","<p class='textcenter' id='intro'>A group of children painted each of 100 eggs a solid color.</p><p class='sentence'>In the end, even though less than half of the eggs were painted green, nonetheless most of the eggs were painted green.</p>","target",NA,""
-1,-1,"single-stim",14,151836,"0.0-14.0","EDAeT"," ","",NA,""
184167,32,"text",0,184173,"0.0-0.0","eGxg5","","",NA,""
22683,74,"single-stim",1,207870,"0.0-1.0","eGxg5","<div class='imageholder'><img class='imagecenter' src='critTrial.png'/><div class='caption'><p style='text-align:center'>Consider the image below. Suppose that a dot is purple if it was painted by ''the purple team'', a dot is green if it was painted by ''the green team'', etc. In this light, does the sentence below the picture accurately describe the picture? When you have made your judgment, press <strong>f</strong> for ''yes'', and <strong>j</strong> for ''no''.</p></div><p class='sentence' id='examplesentence'><strong>The yellow team painted most of the dots.</strong></p></div>","",NA,""
5455,32,"text",2,214328,"0.0-2.0","eGxg5","","",NA,""
6031,32,"text",3,221362,"0.0-3.0","eGxg5","","",NA,""
4321,32,"text",4,226683,"0.0-4.0","eGxg5","","",NA,""
12627,32,"text",5,240311,"0.0-5.0","eGxg5","","",NA,""
5243,32,"text",6,246555,"0.0-6.0","eGxg5","","",NA,""
12285,32,"text",7,259841,"0.0-7.0","eGxg5","","",NA,""
5421,32,"text",8,266262,"0.0-8.0","eGxg5","","",NA,""
9437,70,"single-stim",9,276703,"0.0-9.0","eGxg5","<p class='textcenter' id='intro'>The postman was tasked with delivering hundreds of pieces of mail on Tuesday.</p><p class='sentence'>After delivering two-thirds of the mail he was tasked with getting out there, he had less than half of his pile left to deliver.</p>","nc2",74,"false"
11132,70,"single-stim",10,288837,"0.0-10.0","eGxg5","<p class='textcenter' id='intro'>Many people attended a number of meetings.</p><p class='sentence'>The new guy in the department offered an opinion at most of the meetings, and surprisingly everyone listened to those opinions.</p>","nc1",74,"false"
5912,74,"single-stim",11,295751,"0.0-11.0","eGxg5","<p class='textcenter' id='intro'>A hot new record label released 7 albums last year.</p><p class='sentence'>One particular musician recorded a song that appeared on every one of those albums, even though he didn't record any songs.</p>","c1",70,"false"
5052,70,"single-stim",12,301805,"0.0-12.0","eGxg5","<p class='textcenter' id='intro'>There are 14 Chicago radio stations currently operating.</p><p class='sentence'>Every Chicago radio station might play the blues 24/7, but every Chicago radio station might not play the blues 24/7.</p>","nc2",74,"false"
5280,74,"single-stim",13,308088,"0.0-13.0","eGxg5","<p class='textcenter' id='intro'>A group of children painted each of 100 eggs a solid color.</p><p class='sentence'>In the end, even though less than half of the eggs were painted green, nonetheless most of the eggs were painted green.</p>","target",NA,""
-1,-1,"single-stim",14,309091,"0.0-14.0","eGxg5"," ","",NA,""
2944,32,"text",0,2955,"0.0-0.0","fbvWB","","",NA,""
17026,70,"single-stim",1,20994,"0.0-1.0","fbvWB","<div class='imageholder'><img class='imagecenter' src='critTrial.png'/><div class='caption'><p style='text-align:center'>Consider the image below. Suppose that a dot is purple if it was painted by ''the purple team'', a dot is green if it was painted by ''the green team'', etc. In this light, does the sentence below the picture accurately describe the picture? When you have made your judgment, press <strong>f</strong> for ''yes'', and <strong>j</strong> for ''no''.</p></div><p class='sentence' id='examplesentence'><strong>The yellow team painted most of the dots.</strong></p></div>","",NA,""
1722,32,"text",2,23718,"0.0-2.0","fbvWB","","",NA,""
6152,32,"text",3,30871,"0.0-3.0","fbvWB","","",NA,""
9438,32,"text",4,41310,"0.0-4.0","fbvWB","","",NA,""
6590,32,"text",5,48900,"0.0-5.0","fbvWB","","",NA,""
5393,32,"text",6,55294,"0.0-6.0","fbvWB","","",NA,""
14961,32,"text",7,71256,"0.0-7.0","fbvWB","","",NA,""
2580,32,"text",8,74836,"0.0-8.0","fbvWB","","",NA,""
7890,74,"single-stim",9,83728,"0.0-9.0","fbvWB","<p class='textcenter' id='intro'>Many people attended a number of meetings.</p><p class='sentence'>The new guy in the department offered an opinion at most of the meetings, and surprisingly everyone listened to those opinions.</p>","nc1",74,"true"
9079,74,"single-stim",10,93811,"0.0-10.0","fbvWB","<p class='textcenter' id='intro'>The postman was tasked with delivering hundreds of pieces of mail on Tuesday.</p><p class='sentence'>After delivering two-thirds of the mail he was tasked with getting out there, he had less than half of his pile left to deliver.</p>","nc2",74,"true"
10310,70,"single-stim",11,105121,"0.0-11.0","fbvWB","<p class='textcenter' id='intro'>A hot new record label released 7 albums last year.</p><p class='sentence'>One particular musician recorded a song that appeared on every one of those albums, even though he didn't record any songs.</p>","c1",70,"true"
8743,70,"single-stim",12,114865,"0.0-12.0","fbvWB","<p class='textcenter' id='intro'>There are 14 Chicago radio stations currently operating.</p><p class='sentence'>Every Chicago radio station might play the blues 24/7, but every Chicago radio station might not play the blues 24/7.</p>","nc2",74,"false"
10237,70,"single-stim",13,126103,"0.0-13.0","fbvWB","<p class='textcenter' id='intro'>A group of children painted each of 100 eggs a solid color.</p><p class='sentence'>In the end, even though less than half of the eggs were painted green, nonetheless most of the eggs were painted green.</p>","target",NA,""
-1,-1,"single-stim",14,127105,"0.0-14.0","fbvWB"," ","",NA,""
8782,32,"text",0,8785,"0.0-0.0","FGzdO","","",NA,""
24418,74,"single-stim",1,34210,"0.0-1.0","FGzdO","<div class='imageholder'><img class='imagecenter' src='critTrial.png'/><div class='caption'><p style='text-align:center'>Consider the image below. Suppose that a dot is purple if it was painted by ''the purple team'', a dot is green if it was painted by ''the green team'', etc. In this light, does the sentence below the picture accurately describe the picture? When you have made your judgment, press <strong>f</strong> for ''yes'', and <strong>j</strong> for ''no''.</p></div><p class='sentence' id='examplesentence'><strong>The yellow team painted most of the dots.</strong></p></div>","",NA,""
11798,32,"text",2,47011,"0.0-2.0","FGzdO","","",NA,""
12603,32,"text",3,60615,"0.0-3.0","FGzdO","","",NA,""
7109,32,"text",4,68726,"0.0-4.0","FGzdO","","",NA,""
9949,32,"text",5,79677,"0.0-5.0","FGzdO","","",NA,""
9053,32,"text",6,89732,"0.0-6.0","FGzdO","","",NA,""
7793,32,"text",7,98528,"0.0-7.0","FGzdO","","",NA,""
7683,32,"text",8,107212,"0.0-8.0","FGzdO","","",NA,""
12865,74,"single-stim",9,121079,"0.0-9.0","FGzdO","<p class='textcenter' id='intro'>Many people attended a number of meetings.</p><p class='sentence'>The new guy in the department offered an opinion at most of the meetings, and surprisingly everyone listened to those opinions.</p>","nc1",74,"true"
13145,74,"single-stim",10,135227,"0.0-10.0","FGzdO","<p class='textcenter' id='intro'>The postman was tasked with delivering hundreds of pieces of mail on Tuesday.</p><p class='sentence'>After delivering two-thirds of the mail he was tasked with getting out there, he had less than half of his pile left to deliver.</p>","nc2",74,"true"
21387,74,"single-stim",11,157616,"0.0-11.0","FGzdO","<p class='textcenter' id='intro'>There are 14 Chicago radio stations currently operating.</p><p class='sentence'>Every Chicago radio station might play the blues 24/7, but every Chicago radio station might not play the blues 24/7.</p>","nc2",74,"true"
7160,70,"single-stim",12,165779,"0.0-12.0","FGzdO","<p class='textcenter' id='intro'>A hot new record label released 7 albums last year.</p><p class='sentence'>One particular musician recorded a song that appeared on every one of those albums, even though he didn't record any songs.</p>","c1",70,"true"
7910,70,"single-stim",13,174692,"0.0-13.0","FGzdO","<p class='textcenter' id='intro'>A group of children painted each of 100 eggs a solid color.</p><p class='sentence'>In the end, even though less than half of the eggs were painted green, nonetheless most of the eggs were painted green.</p>","target",NA,""
-1,-1,"single-stim",14,175696,"0.0-14.0","FGzdO"," ","",NA,""
42392,32,"text",0,42397,"0.0-0.0","FO3Be","","",NA,""
35814,74,"single-stim",1,79222,"0.0-1.0","FO3Be","<div class='imageholder'><img class='imagecenter' src='critTrial.png'/><div class='caption'><p style='text-align:center'>Consider the image below. Suppose that a dot is purple if it was painted by ''the purple team'', a dot is green if it was painted by ''the green team'', etc. In this light, does the sentence below the picture accurately describe the picture? When you have made your judgment, press <strong>f</strong> for ''yes'', and <strong>j</strong> for ''no''.</p></div><p class='sentence' id='examplesentence'><strong>The yellow team painted most of the dots.</strong></p></div>","",NA,""
7504,32,"text",2,87728,"0.0-2.0","FO3Be","","",NA,""
15576,32,"text",3,104305,"0.0-3.0","FO3Be","","",NA,""
12257,32,"text",4,117564,"0.0-4.0","FO3Be","","",NA,""
13847,32,"text",5,132411,"0.0-5.0","FO3Be","","",NA,""
8426,32,"text",6,141838,"0.0-6.0","FO3Be","","",NA,""
12433,32,"text",7,155272,"0.0-7.0","FO3Be","","",NA,""
9496,32,"text",8,165768,"0.0-8.0","FO3Be","","",NA,""
29246,70,"single-stim",9,196016,"0.0-9.0","FO3Be","<p class='textcenter' id='intro'>There are 14 Chicago radio stations currently operating.</p><p class='sentence'>Every Chicago radio station might play the blues 24/7, but every Chicago radio station might not play the blues 24/7.</p>","nc2",74,"false"
11217,74,"single-stim",10,208235,"0.0-10.0","FO3Be","<p class='textcenter' id='intro'>Many people attended a number of meetings.</p><p class='sentence'>The new guy in the department offered an opinion at most of the meetings, and surprisingly everyone listened to those opinions.</p>","nc1",74,"true"
11313,70,"single-stim",11,220550,"0.0-11.0","FO3Be","<p class='textcenter' id='intro'>A hot new record label released 7 albums last year.</p><p class='sentence'>One particular musician recorded a song that appeared on every one of those albums, even though he didn't record any songs.</p>","c1",70,"true"
23764,74,"single-stim",12,245315,"0.0-12.0","FO3Be","<p class='textcenter' id='intro'>The postman was tasked with delivering hundreds of pieces of mail on Tuesday.</p><p class='sentence'>After delivering two-thirds of the mail he was tasked with getting out there, he had less than half of his pile left to deliver.</p>","nc2",74,"true"
10248,70,"single-stim",13,256567,"0.0-13.0","FO3Be","<p class='textcenter' id='intro'>A group of children painted each of 100 eggs a solid color.</p><p class='sentence'>In the end, even though less than half of the eggs were painted green, nonetheless most of the eggs were painted green.</p>","target",NA,""
-1,-1,"single-stim",14,257570,"0.0-14.0","FO3Be"," ","",NA,""
6094,32,"text",0,6102,"0.0-0.0","FXWOZ","","",NA,""
