"rt","key_press","trial_type","trial_index","trial_index_global","time_elapsed","internal_chunk_id","subject","stimulus","responses"
"1767218","32","text","0","0","1767221","0-0","s08","",""
"6081","70","single-stim","0","1","1774307","0-0","s08","img/Slide28.png",""
"1637","70","single-stim","1","2","1776346","0-0","s08","img/Slide02.png",""
"1534","74","single-stim","2","3","1778282","0-0","s08","img/Slide25.png",""
"1663","74","single-stim","3","4","1780346","0-0","s08","img/Slide25.png",""
"2446","74","single-stim","4","5","1783194","0-0","s08","img/Slide23.png",""
"1310","74","single-stim","5","6","1784906","0-0","s08","img/Slide18.png",""
"1336","74","single-stim","6","7","1786642","0-0","s08","img/Slide23.png",""
"928","70","single-stim","7","8","1787970","0-0","s08","img/Slide28.png",""
"1710","70","single-stim","8","9","1790082","0-0","s08","img/Slide14.png",""
"1237","70","single-stim","9","10","1791721","0-0","s08","img/Slide30.png",""
"1678","70","single-stim","10","11","1793801","0-0","s08","img/Slide27.png",""
"2063","70","single-stim","11","12","1796266","0-0","s08","img/Slide27.png",""
"1518","70","single-stim","12","13","1798185","0-0","s08","img/Slide14.png",""
"1350","70","single-stim","13","14","1799937","0-0","s08","img/Slide05.png",""
"1270","70","single-stim","14","15","1801609","0-0","s08","img/Slide27.png",""
"4246","70","single-stim","15","16","1806257","0-0","s08","img/Slide07.png",""
"1166","70","single-stim","16","17","1807825","0-0","s08","img/Slide03.png",""
"854","70","single-stim","17","18","1809081","0-0","s08","img/Slide27.png",""
"1070","70","single-stim","18","19","1810553","0-0","s08","img/Slide08.png",""
"1086","70","single-stim","19","20","1812041","0-0","s08","img/Slide27.png",""
"7366","74","single-stim","20","21","1819809","0-0","s08","img/Slide09.png",""
"1230","74","single-stim","21","22","1821441","0-0","s08","img/Slide09.png",""
"1902","70","single-stim","22","23","1823744","0-0","s08","img/Slide05.png",""
"1182","70","single-stim","23","24","1825329","0-0","s08","img/Slide04.png",""
"982","74","single-stim","24","25","1826712","0-0","s08","img/Slide24.png",""
"3190","74","single-stim","25","26","1830304","0-0","s08","img/Slide15.png",""
"1662","74","single-stim","26","27","1832368","0-0","s08","img/Slide07.png",""
"1830","70","single-stim","27","28","1834600","0-0","s08","img/Slide30.png",""
"2327","74","single-stim","28","29","1837328","0-0","s08","img/Slide20.png",""
"1390","74","single-stim","29","30","1839120","0-0","s08","img/Slide12.png",""
"4678","74","single-stim","30","31","1844200","0-0","s08","img/Slide13.png",""
"1310","74","single-stim","31","32","1845912","0-0","s08","img/Slide20.png",""
"1911","74","single-stim","32","33","1848224","0-0","s08","img/Slide12.png",""
"1719","74","single-stim","33","34","1850344","0-0","s08","img/Slide10.png",""
"966","74","single-stim","34","35","1851712","0-0","s08","img/Slide13.png",""
"926","74","single-stim","35","36","1853040","0-0","s08","img/Slide07.png",""
"990","74","single-stim","36","37","1854432","0-0","s08","img/Slide08.png",""
"1030","74","single-stim","37","38","1855864","0-0","s08","img/Slide22.png",""
"1191","70","single-stim","38","39","1857455","0-0","s08","img/Slide04.png",""
"1454","74","single-stim","39","40","1859311","0-0","s08","img/Slide10.png",""
"1030","70","single-stim","40","41","1860743","0-0","s08","img/Slide29.png",""
"1870","74","single-stim","41","42","1863015","0-0","s08","img/Slide24.png",""
"2183","74","single-stim","42","43","1865599","0-0","s08","img/Slide10.png",""
"1054","74","single-stim","43","44","1867055","0-0","s08","img/Slide08.png",""
"1503","70","single-stim","44","45","1868959","0-0","s08","img/Slide30.png",""
"927","74","single-stim","45","46","1870287","0-0","s08","img/Slide23.png",""
"1190","70","single-stim","46","47","1871879","0-0","s08","img/Slide02.png",""
"1559","74","single-stim","47","48","1873839","0-0","s08","img/Slide18.png",""
"1414","74","single-stim","48","49","1875655","0-0","s08","img/Slide15.png",""
"3158","74","single-stim","49","50","1879215","0-0","s08","img/Slide09.png",""
"775","74","single-stim","50","51","1880391","0-0","s08","img/Slide19.png",""
"1718","70","single-stim","51","52","1882511","0-0","s08","img/Slide05.png",""
"1798","74","single-stim","52","53","1884711","0-0","s08","img/Slide09.png",""
"766","74","single-stim","53","54","1885878","0-0","s08","img/Slide25.png",""
"1294","70","single-stim","54","55","1887574","0-0","s08","img/Slide03.png",""
"694","70","single-stim","55","56","1888670","0-0","s08","img/Slide04.png",""
"614","74","single-stim","56","57","1889686","0-0","s08","img/Slide22.png",""
"2406","74","single-stim","57","58","1892494","0-0","s08","img/Slide08.png",""
"710","70","single-stim","58","59","1893606","0-0","s08","img/Slide02.png",""
"663","74","single-stim","59","60","1894670","0-0","s08","img/Slide25.png",""
"1118","74","single-stim","60","61","1896190","0-0","s08","img/Slide19.png",""
"742","74","single-stim","61","62","1897334","0-0","s08","img/Slide20.png",""
"550","74","single-stim","62","63","1898286","0-0","s08","img/Slide22.png",""
"758","74","single-stim","63","64","1899446","0-0","s08","img/Slide24.png",""
"903","74","single-stim","64","65","1900750","0-0","s08","img/Slide20.png",""
"1317","70","single-stim","65","66","1902470","0-0","s08","img/Slide29.png",""
"3743","74","single-stim","66","67","1906614","0-0","s08","img/Slide15.png",""
"917","74","single-stim","67","68","1907934","0-0","s08","img/Slide19.png",""
"807","70","single-stim","68","69","1909142","0-0","s08","img/Slide03.png",""
"679","70","single-stim","69","70","1910222","0-0","s08","img/Slide04.png",""
"679","74","single-stim","70","71","1911302","0-0","s08","img/Slide18.png",""
"1262","70","single-stim","71","72","1912966","0-0","s08","img/Slide28.png",""
"2335","74","single-stim","72","73","1915702","0-0","s08","img/Slide13.png",""
"919","70","single-stim","73","74","1917021","0-0","s08","img/Slide04.png",""
"2207","74","single-stim","74","75","1919629","0-0","s08","img/Slide15.png",""
"-1","-1","single-stim","75","76","1930032","0-0","s08","img/Slide10.png",""
"3685","70","single-stim","76","77","1934117","0-0","s08","img/Slide29.png",""
"1054","74","single-stim","77","78","1935573","0-0","s08","img/Slide18.png",""
"-1","-1","single-stim","78","79","1945976","0-0","s08","img/Slide13.png",""
"2642","70","single-stim","79","80","1949020","0-0","s08","img/Slide29.png",""
"2038","74","single-stim","80","81","1951460","0-0","s08","img/Slide12.png",""
"1214","74","single-stim","81","82","1953076","0-0","s08","img/Slide07.png",""
"1447","74","single-stim","82","83","1954924","0-0","s08","img/Slide14.png",""
"950","74","single-stim","83","84","1956276","0-0","s08","img/Slide18.png",""
"686","74","single-stim","84","85","1957364","0-0","s08","img/Slide19.png",""
"782","74","single-stim","85","86","1958548","0-0","s08","img/Slide23.png",""
"1318","74","single-stim","86","87","1960268","0-0","s08","img/Slide12.png",""
"886","74","single-stim","87","88","1961556","0-0","s08","img/Slide17.png",""
"942","74","single-stim","88","89","1962900","0-0","s08","img/Slide14.png",""
"735","70","single-stim","89","90","1964036","0-0","s08","img/Slide05.png",""
"783","74","single-stim","90","91","1965220","0-0","s08","img/Slide24.png",""
"1431","70","single-stim","91","92","1967052","0-0","s08","img/Slide29.png",""
"1197","74","single-stim","92","93","1968652","0-0","s08","img/Slide17.png",""
"823","70","single-stim","93","94","1969876","0-0","s08","img/Slide30.png",""
"912","70","single-stim","94","95","1971188","0-0","s08","img/Slide03.png",""
"832","74","single-stim","95","96","1972420","0-0","s08","img/Slide17.png",""
"1014","74","single-stim","96","97","1973835","0-0","s08","img/Slide14.png",""
"686","74","single-stim","97","98","1974924","0-0","s08","img/Slide22.png",""
"2934","74","single-stim","98","99","1978259","0-0","s08","img/Slide25.png",""
"1078","74","single-stim","99","100","1979739","0-0","s08","img/Slide24.png",""
"718","74","single-stim","100","101","1980859","0-0","s08","img/Slide12.png",""
"679","74","single-stim","101","102","1981940","0-0","s08","img/Slide13.png",""
"1141","74","single-stim","102","103","1983483","0-0","s08","img/Slide07.png",""
"798","70","single-stim","103","104","1984683","0-0","s08","img/Slide05.png",""
"1102","74","single-stim","104","105","1986187","0-0","s08","img/Slide23.png",""
"2207","74","single-stim","105","106","1988795","0-0","s08","img/Slide09.png",""
"1319","70","single-stim","106","107","1990515","0-0","s08","img/Slide28.png",""
"837","74","single-stim","107","108","1991755","0-0","s08","img/Slide17.png",""
"1030","70","single-stim","108","109","1993187","0-0","s08","img/Slide28.png",""
"3094","74","single-stim","109","110","1996683","0-0","s08","img/Slide10.png",""
"862","74","single-stim","110","111","1997947","0-0","s08","img/Slide20.png",""
"743","70","single-stim","111","112","1999091","0-0","s08","img/Slide02.png",""
"4222","70","single-stim","112","113","2003715","0-0","s08","img/Slide30.png",""
"854","74","single-stim","113","114","2004970","0-0","s08","img/Slide17.png",""
"766","74","single-stim","114","115","2006139","0-0","s08","img/Slide08.png",""
"1039","70","single-stim","115","116","2007578","0-0","s08","img/Slide03.png",""
"1398","74","single-stim","116","117","2009378","0-0","s08","img/Slide15.png",""
"1094","70","single-stim","117","118","2010874","0-0","s08","img/Slide02.png",""
"1814","74","single-stim","118","119","2013090","0-0","s08","img/Slide19.png",""
"854","74","single-stim","119","120","2014346","0-0","s08","img/Slide22.png",""
"117357","","survey-text","0","121","2132108","0-0","s08","","{""Q0"":""Only in the sense that the sentence could be interpreted in different ways."",""Q1"":""I said that the sentence matched the picture when there were at least two red dots that were bigger than all the other blue ones."",""Q2"":""""}"
"32551","49","single-stim","0","122","2165661","0-0","s08","<p style=""font-size:30px; text-align:center"">Thanks for participating!</p>",""
