"rt","key_press","trial_type","trial_index","trial_index_global","time_elapsed","internal_chunk_id","subject","stimulus","responses"
"5118944","32","text","0","0","5118947","0-0","s17","",""
"3712","70","single-stim","0","1","5123665","0-0","s17","img/Slide05.png",""
"3420","74","single-stim","1","2","5127489","0-0","s17","img/Slide25.png",""
"3101","70","single-stim","2","3","5130992","0-0","s17","img/Slide04.png",""
"2238","70","single-stim","3","4","5133632","0-0","s17","img/Slide03.png",""
"4030","74","single-stim","4","5","5138064","0-0","s17","img/Slide09.png",""
"1838","74","single-stim","5","6","5140304","0-0","s17","img/Slide12.png",""
"1886","74","single-stim","6","7","5142592","0-0","s17","img/Slide27.png",""
"1719","74","single-stim","7","8","5144712","0-0","s17","img/Slide17.png",""
"1726","74","single-stim","8","9","5146840","0-0","s17","img/Slide27.png",""
"1678","74","single-stim","9","10","5148920","0-0","s17","img/Slide28.png",""
"1590","74","single-stim","10","11","5150912","0-0","s17","img/Slide22.png",""
"1454","74","single-stim","11","12","5152768","0-0","s17","img/Slide25.png",""
"1535","70","single-stim","12","13","5154704","0-0","s17","img/Slide05.png",""
"1462","74","single-stim","13","14","5156568","0-0","s17","img/Slide09.png",""
"887","74","single-stim","14","15","5157856","0-0","s17","img/Slide22.png",""
"3541","74","single-stim","15","16","5161800","0-0","s17","img/Slide20.png",""
"1550","74","single-stim","16","17","5163752","0-0","s17","img/Slide24.png",""
"1734","74","single-stim","17","18","5165888","0-0","s17","img/Slide15.png",""
"1909","70","single-stim","18","19","5168200","0-0","s17","img/Slide04.png",""
"1302","70","single-stim","19","20","5169903","0-0","s17","img/Slide03.png",""
"1286","74","single-stim","20","21","5171591","0-0","s17","img/Slide24.png",""
"2286","74","single-stim","21","22","5174279","0-0","s17","img/Slide10.png",""
"1310","74","single-stim","22","23","5175991","0-0","s17","img/Slide08.png",""
"1207","74","single-stim","23","24","5177599","0-0","s17","img/Slide09.png",""
"1431","70","single-stim","24","25","5179431","0-0","s17","img/Slide02.png",""
"1478","74","single-stim","25","26","5181311","0-0","s17","img/Slide30.png",""
"838","74","single-stim","26","27","5182551","0-0","s17","img/Slide25.png",""
"1422","74","single-stim","27","28","5184375","0-0","s17","img/Slide13.png",""
"1254","74","single-stim","28","29","5186031","0-0","s17","img/Slide19.png",""
"983","74","single-stim","29","30","5187415","0-0","s17","img/Slide30.png",""
"1223","74","single-stim","30","31","5189039","0-0","s17","img/Slide07.png",""
"1846","74","single-stim","31","32","5191287","0-0","s17","img/Slide24.png",""
"1463","70","single-stim","32","33","5193151","0-0","s17","img/Slide02.png",""
"1190","74","single-stim","33","34","5194743","0-0","s17","img/Slide20.png",""
"879","74","single-stim","34","35","5196023","0-0","s17","img/Slide17.png",""
"1246","74","single-stim","35","36","5197671","0-0","s17","img/Slide22.png",""
"1158","74","single-stim","36","37","5199231","0-0","s17","img/Slide13.png",""
"1174","70","single-stim","37","38","5200807","0-0","s17","img/Slide02.png",""
"1134","74","single-stim","38","39","5202342","0-0","s17","img/Slide09.png",""
"1894","74","single-stim","39","40","5204638","0-0","s17","img/Slide30.png",""
"4478","74","single-stim","40","41","5209518","0-0","s17","img/Slide18.png",""
"2334","74","single-stim","41","42","5212254","0-0","s17","img/Slide10.png",""
"4183","70","single-stim","42","43","5216838","0-0","s17","img/Slide29.png",""
"2638","74","single-stim","43","44","5219878","0-0","s17","img/Slide10.png",""
"2198","74","single-stim","44","45","5222478","0-0","s17","img/Slide12.png",""
"1206","74","single-stim","45","46","5224086","0-0","s17","img/Slide15.png",""
"1406","74","single-stim","46","47","5225894","0-0","s17","img/Slide08.png",""
"1118","74","single-stim","47","48","5227414","0-0","s17","img/Slide17.png",""
"1342","70","single-stim","48","49","5229158","0-0","s17","img/Slide28.png",""
"1821","74","single-stim","49","50","5231382","0-0","s17","img/Slide18.png",""
"1063","74","single-stim","50","51","5232846","0-0","s17","img/Slide07.png",""
"1206","74","single-stim","51","52","5234454","0-0","s17","img/Slide14.png",""
"959","74","single-stim","52","53","5235814","0-0","s17","img/Slide14.png",""
"1173","74","single-stim","53","54","5237390","0-0","s17","img/Slide13.png",""
"1270","74","single-stim","54","55","5239061","0-0","s17","img/Slide08.png",""
"886","74","single-stim","55","56","5240350","0-0","s17","img/Slide07.png",""
"1151","74","single-stim","56","57","5241901","0-0","s17","img/Slide14.png",""
"998","74","single-stim","57","58","5243301","0-0","s17","img/Slide23.png",""
"990","70","single-stim","58","59","5244693","0-0","s17","img/Slide04.png",""
"1094","70","single-stim","59","60","5246189","0-0","s17","img/Slide03.png",""
"1830","74","single-stim","60","61","5248421","0-0","s17","img/Slide09.png",""
"1230","70","single-stim","61","62","5250053","0-0","s17","img/Slide30.png",""
"878","74","single-stim","62","63","5251333","0-0","s17","img/Slide23.png",""
"998","74","single-stim","63","64","5252733","0-0","s17","img/Slide07.png",""
"814","74","single-stim","64","65","5253950","0-0","s17","img/Slide25.png",""
"742","74","single-stim","65","66","5255093","0-0","s17","img/Slide24.png",""
"3375","70","single-stim","66","67","5258869","0-0","s17","img/Slide29.png",""
"1190","74","single-stim","67","68","5260461","0-0","s17","img/Slide13.png",""
"3054","74","single-stim","68","69","5263917","0-0","s17","img/Slide15.png",""
"839","74","single-stim","69","70","5265157","0-0","s17","img/Slide23.png",""
"847","74","single-stim","70","71","5266405","0-0","s17","img/Slide08.png",""
"1695","74","single-stim","71","72","5268501","0-0","s17","img/Slide07.png",""
"1134","74","single-stim","72","73","5270037","0-0","s17","img/Slide19.png",""
"902","70","single-stim","73","74","5271341","0-0","s17","img/Slide05.png",""
"1870","74","single-stim","74","75","5273613","0-0","s17","img/Slide15.png",""
"861","70","single-stim","75","76","5274876","0-0","s17","img/Slide05.png",""
"1207","74","single-stim","76","77","5276484","0-0","s17","img/Slide23.png",""
"1159","70","single-stim","77","78","5278044","0-0","s17","img/Slide29.png",""
"1494","74","single-stim","78","79","5279940","0-0","s17","img/Slide18.png",""
"1590","74","single-stim","79","80","5281932","0-0","s17","img/Slide19.png",""
"1030","74","single-stim","80","81","5283364","0-0","s17","img/Slide20.png",""
"687","74","single-stim","81","82","5284452","0-0","s17","img/Slide12.png",""
"1086","74","single-stim","82","83","5285940","0-0","s17","img/Slide18.png",""
"1303","74","single-stim","83","84","5287644","0-0","s17","img/Slide15.png",""
"1118","70","single-stim","84","85","5289164","0-0","s17","img/Slide27.png",""
"1263","70","single-stim","85","86","5290828","0-0","s17","img/Slide02.png",""
"1455","74","single-stim","86","87","5292684","0-0","s17","img/Slide23.png",""
"1782","74","single-stim","87","88","5294868","0-0","s17","img/Slide10.png",""
"943","74","single-stim","88","89","5296212","0-0","s17","img/Slide22.png",""
"1382","70","single-stim","89","90","5297996","0-0","s17","img/Slide29.png",""
"1998","74","single-stim","90","91","5300396","0-0","s17","img/Slide13.png",""
"1007","70","single-stim","91","92","5301804","0-0","s17","img/Slide28.png",""
"926","74","single-stim","92","93","5303132","0-0","s17","img/Slide12.png",""
"1063","70","single-stim","93","94","5304596","0-0","s17","img/Slide27.png",""
"1246","70","single-stim","94","95","5306244","0-0","s17","img/Slide28.png",""
"1278","70","single-stim","95","96","5307924","0-0","s17","img/Slide27.png",""
"1294","70","single-stim","96","97","5309619","0-0","s17","img/Slide04.png",""
"1175","74","single-stim","97","98","5311196","0-0","s17","img/Slide20.png",""
"813","74","single-stim","98","99","5312411","0-0","s17","img/Slide20.png",""
"1566","70","single-stim","99","100","5314379","0-0","s17","img/Slide30.png",""
"950","70","single-stim","100","101","5315731","0-0","s17","img/Slide28.png",""
"758","74","single-stim","101","102","5316891","0-0","s17","img/Slide22.png",""
"582","74","single-stim","102","103","5317875","0-0","s17","img/Slide12.png",""
"1662","74","single-stim","103","104","5319939","0-0","s17","img/Slide19.png",""
"983","70","single-stim","104","105","5321323","0-0","s17","img/Slide29.png",""
"1374","74","single-stim","105","106","5323099","0-0","s17","img/Slide17.png",""
"2414","70","single-stim","106","107","5325915","0-0","s17","img/Slide05.png",""
"2174","74","single-stim","107","108","5328491","0-0","s17","img/Slide18.png",""
"1726","70","single-stim","108","109","5330619","0-0","s17","img/Slide03.png",""
"1286","74","single-stim","109","110","5332307","0-0","s17","img/Slide24.png",""
"1494","70","single-stim","110","111","5334203","0-0","s17","img/Slide03.png",""
"1415","74","single-stim","111","112","5336019","0-0","s17","img/Slide17.png",""
"1031","70","single-stim","112","113","5337451","0-0","s17","img/Slide02.png",""
"1446","74","single-stim","113","114","5339299","0-0","s17","img/Slide08.png",""
"1023","70","single-stim","114","115","5340723","0-0","s17","img/Slide04.png",""
"1062","74","single-stim","115","116","5342187","0-0","s17","img/Slide14.png",""
"3558","74","single-stim","116","117","5346146","0-0","s17","img/Slide10.png",""
"1726","74","single-stim","117","118","5348274","0-0","s17","img/Slide19.png",""
"1038","74","single-stim","118","119","5349714","0-0","s17","img/Slide25.png",""
"2142","74","single-stim","119","120","5352258","0-0","s17","img/Slide14.png",""
"73570","","survey-text","0","121","5426235","0-0","s17","","{""Q0"":""Not really, I just answered what my first reaction was."",""Q1"":""When the biggest two dots (at least) were red."",""Q2"":""Nope""}"
"16244","49","single-stim","0","122","5443480","0-0","s17","<p style=""font-size:30px; text-align:center"">Thanks for participating!</p>",""
