rt,key_press,trial_type,trial_index,trial_index_global,time_elapsed,internal_chunk_id,subject,stimulus,responses
3015283,32,text,0,0,3015287,0-0,s22,,
2745,70,single-stim,0,1,3019037,0-0,s22,img/Slide08.png,
1340,70,single-stim,1,2,3020780,0-0,s22,img/Slide08.png,
1254,70,single-stim,2,3,3022436,0-0,s22,img/Slide15.png,
1191,70,single-stim,3,4,3024028,0-0,s22,img/Slide10.png,
1150,70,single-stim,4,5,3025580,0-0,s22,img/Slide05.png,
1910,70,single-stim,5,6,3027892,0-0,s22,img/Slide14.png,
1039,74,single-stim,6,7,3029332,0-0,s22,img/Slide22.png,
1279,70,single-stim,7,8,3031012,0-0,s22,img/Slide28.png,
1046,70,single-stim,8,9,3032460,0-0,s22,img/Slide05.png,
983,70,single-stim,9,10,3033844,0-0,s22,img/Slide27.png,
1095,70,single-stim,10,11,3035340,0-0,s22,img/Slide14.png,
1094,70,single-stim,11,12,3036836,0-0,s22,img/Slide14.png,
966,70,single-stim,12,13,3038204,0-0,s22,img/Slide27.png,
1214,74,single-stim,13,14,3039819,0-0,s22,img/Slide19.png,
1022,70,single-stim,14,15,3041243,0-0,s22,img/Slide12.png,
854,70,single-stim,15,16,3042499,0-0,s22,img/Slide03.png,
846,74,single-stim,16,17,3043747,0-0,s22,img/Slide17.png,
790,70,single-stim,17,18,3044939,0-0,s22,img/Slide03.png,
846,70,single-stim,18,19,3046187,0-0,s22,img/Slide09.png,
854,70,single-stim,19,20,3047443,0-0,s22,img/Slide07.png,
750,70,single-stim,20,21,3048595,0-0,s22,img/Slide30.png,
966,70,single-stim,21,22,3049963,0-0,s22,img/Slide10.png,
727,70,single-stim,22,23,3051091,0-0,s22,img/Slide05.png,
870,70,single-stim,23,24,3052363,0-0,s22,img/Slide29.png,
814,74,single-stim,24,25,3053579,0-0,s22,img/Slide23.png,
662,70,single-stim,25,26,3054643,0-0,s22,img/Slide02.png,
790,70,single-stim,26,27,3055835,0-0,s22,img/Slide09.png,
1102,70,single-stim,27,28,3057339,0-0,s22,img/Slide15.png,
631,70,single-stim,28,29,3058371,0-0,s22,img/Slide02.png,
718,74,single-stim,29,30,3059491,0-0,s22,img/Slide25.png,
862,74,single-stim,30,31,3060755,0-0,s22,img/Slide24.png,
782,74,single-stim,31,32,3061939,0-0,s22,img/Slide24.png,
982,70,single-stim,32,33,3063323,0-0,s22,img/Slide28.png,
1198,74,single-stim,33,34,3064923,0-0,s22,img/Slide20.png,
943,70,single-stim,34,35,3066267,0-0,s22,img/Slide12.png,
966,74,single-stim,35,36,3067635,0-0,s22,img/Slide23.png,
823,70,single-stim,36,37,3068859,0-0,s22,img/Slide04.png,
758,74,single-stim,37,38,3070018,0-0,s22,img/Slide18.png,
1022,70,single-stim,38,39,3071442,0-0,s22,img/Slide14.png,
686,74,single-stim,39,40,3072530,0-0,s22,img/Slide22.png,
775,70,single-stim,40,41,3073706,0-0,s22,img/Slide04.png,
654,74,single-stim,41,42,3074762,0-0,s22,img/Slide19.png,
782,74,single-stim,42,43,3075946,0-0,s22,img/Slide17.png,
1022,70,single-stim,43,44,3077371,0-0,s22,img/Slide13.png,
622,74,single-stim,44,45,3078394,0-0,s22,img/Slide22.png,
718,70,single-stim,45,46,3079514,0-0,s22,img/Slide09.png,
742,70,single-stim,46,47,3080658,0-0,s22,img/Slide15.png,
678,70,single-stim,47,48,3081738,0-0,s22,img/Slide03.png,
902,74,single-stim,48,49,3083042,0-0,s22,img/Slide20.png,
734,70,single-stim,49,50,3084178,0-0,s22,img/Slide30.png,
654,70,single-stim,50,51,3085234,0-0,s22,img/Slide27.png,
710,70,single-stim,51,52,3086346,0-0,s22,img/Slide30.png,
631,74,single-stim,52,53,3087378,0-0,s22,img/Slide22.png,
1247,74,single-stim,53,54,3089026,0-0,s22,img/Slide12.png,
654,70,single-stim,54,55,3090082,0-0,s22,img/Slide28.png,
774,74,single-stim,55,56,3091258,0-0,s22,img/Slide25.png,
767,70,single-stim,56,57,3092426,0-0,s22,img/Slide03.png,
791,70,single-stim,57,58,3093618,0-0,s22,img/Slide30.png,
1022,74,single-stim,58,59,3095042,0-0,s22,img/Slide20.png,
736,74,single-stim,59,60,3096178,0-0,s22,img/Slide19.png,
902,70,single-stim,60,61,3097482,0-0,s22,img/Slide13.png,
630,70,single-stim,61,62,3098514,0-0,s22,img/Slide27.png,
758,70,single-stim,62,63,3099674,0-0,s22,img/Slide09.png,
687,74,single-stim,63,64,3100762,0-0,s22,img/Slide19.png,
710,74,single-stim,64,65,3101874,0-0,s22,img/Slide17.png,
757,70,single-stim,65,66,3103034,0-0,s22,img/Slide05.png,
653,74,single-stim,66,67,3104089,0-0,s22,img/Slide24.png,
806,70,single-stim,67,68,3105297,0-0,s22,img/Slide15.png,
670,74,single-stim,68,69,3106369,0-0,s22,img/Slide18.png,
910,70,single-stim,69,70,3107681,0-0,s22,img/Slide15.png,
590,70,single-stim,70,71,3108673,0-0,s22,img/Slide04.png,
646,70,single-stim,71,72,3109721,0-0,s22,img/Slide12.png,
630,74,single-stim,72,73,3110753,0-0,s22,img/Slide18.png,
782,74,single-stim,73,74,3111937,0-0,s22,img/Slide25.png,
574,70,single-stim,74,75,3112913,0-0,s22,img/Slide05.png,
1022,70,single-stim,75,76,3114337,0-0,s22,img/Slide09.png,
727,70,single-stim,76,77,3115465,0-0,s22,img/Slide03.png,
646,70,single-stim,77,78,3116513,0-0,s22,img/Slide13.png,
751,74,single-stim,78,79,3117665,0-0,s22,img/Slide18.png,
566,70,single-stim,79,80,3118633,0-0,s22,img/Slide02.png,
758,70,single-stim,80,81,3119793,0-0,s22,img/Slide08.png,
855,70,single-stim,81,82,3121049,0-0,s22,img/Slide07.png,
558,70,single-stim,82,83,3122009,0-0,s22,img/Slide10.png,
782,70,single-stim,83,84,3123193,0-0,s22,img/Slide08.png,
750,74,single-stim,84,85,3124345,0-0,s22,img/Slide25.png,
607,70,single-stim,85,86,3125353,0-0,s22,img/Slide04.png,
718,74,single-stim,86,87,3126473,0-0,s22,img/Slide18.png,
655,74,single-stim,87,88,3127529,0-0,s22,img/Slide20.png,
598,74,single-stim,88,89,3128529,0-0,s22,img/Slide24.png,
574,74,single-stim,89,90,3129505,0-0,s22,img/Slide23.png,
726,70,single-stim,90,91,3130632,0-0,s22,img/Slide07.png,
606,70,single-stim,91,92,3131640,0-0,s22,img/Slide10.png,
598,74,single-stim,92,93,3132640,0-0,s22,img/Slide22.png,
662,70,single-stim,93,94,3133704,0-0,s22,img/Slide30.png,
582,74,single-stim,94,95,3134688,0-0,s22,img/Slide17.png,
615,70,single-stim,95,96,3135704,0-0,s22,img/Slide29.png,
559,74,single-stim,96,97,3136664,0-0,s22,img/Slide24.png,
622,70,single-stim,97,98,3137688,0-0,s22,img/Slide04.png,
790,70,single-stim,98,99,3138880,0-0,s22,img/Slide27.png,
542,70,single-stim,99,100,3139824,0-0,s22,img/Slide29.png,
742,70,single-stim,100,101,3140968,0-0,s22,img/Slide07.png,
694,70,single-stim,101,102,3142064,0-0,s22,img/Slide13.png,
654,70,single-stim,102,103,3143120,0-0,s22,img/Slide12.png,
982,74,single-stim,103,104,3144504,0-0,s22,img/Slide19.png,
735,74,single-stim,104,105,3145640,0-0,s22,img/Slide23.png,
1087,70,single-stim,105,106,3147128,0-0,s22,img/Slide08.png,
543,70,single-stim,106,107,3148072,0-0,s22,img/Slide07.png,
861,70,single-stim,107,108,3149336,0-0,s22,img/Slide13.png,
622,70,single-stim,108,109,3150360,0-0,s22,img/Slide29.png,
590,70,single-stim,109,110,3151352,0-0,s22,img/Slide02.png,
654,70,single-stim,110,111,3152408,0-0,s22,img/Slide14.png,
671,70,single-stim,111,112,3153480,0-0,s22,img/Slide29.png,
767,74,single-stim,112,113,3154648,0-0,s22,img/Slide25.png,
679,70,single-stim,113,114,3155728,0-0,s22,img/Slide10.png,
559,70,single-stim,114,115,3156688,0-0,s22,img/Slide02.png,
711,70,single-stim,115,116,3157800,0-0,s22,img/Slide28.png,
623,70,single-stim,116,117,3158824,0-0,s22,img/Slide20.png,
814,74,single-stim,117,118,3160040,0-0,s22,img/Slide17.png,
806,74,single-stim,118,119,3161247,0-0,s22,img/Slide23.png,
934,70,single-stim,119,120,3162584,0-0,s22,img/Slide28.png,
123182,,survey-text,0,121,3286170,0-0,s22,,"{""Q0"":""Occasionally; the plural made it difficult. Like if the single largest circle is red but the number two biggest is blue, what can you say about the color of the largest circleS?"",""Q1"":""I think it probably mostly depended on the size of the largest circle."",""Q2"":""I accidentally hit the wrong button for at least one, but I don't think it was a statistically huge number.""}"
48973,49,single-stim,0,122,3336146,0-0,s22,"<p style=""font-size:30px; text-align:center"">Thanks for participating!</p>",