"rt","key_press","trial_type","trial_index","trial_index_global","time_elapsed","internal_chunk_id","subject","stimulus","responses"
2422572,32,"text",0,0,2422574,"0-0","s01","",""
4305,70,"single-stim",0,1,2427884,"0-0","s01","img/Slide10.png",""
1677,70,"single-stim",1,2,2429964,"0-0","s01","img/Slide30.png",""
1527,74,"single-stim",2,3,2431892,"0-0","s01","img/Slide25.png",""
5246,70,"single-stim",3,4,2437540,"0-0","s01","img/Slide08.png",""
2663,70,"single-stim",4,5,2440603,"0-0","s01","img/Slide12.png",""
1566,70,"single-stim",5,6,2442571,"0-0","s01","img/Slide03.png",""
1294,70,"single-stim",6,7,2444267,"0-0","s01","img/Slide27.png",""
2838,70,"single-stim",7,8,2447507,"0-0","s01","img/Slide14.png",""
1574,70,"single-stim",8,9,2449483,"0-0","s01","img/Slide28.png",""
1135,74,"single-stim",9,10,2451019,"0-0","s01","img/Slide25.png",""
1558,70,"single-stim",10,11,2452979,"0-0","s01","img/Slide02.png",""
1566,70,"single-stim",11,12,2454947,"0-0","s01","img/Slide29.png",""
1383,74,"single-stim",12,13,2456731,"0-0","s01","img/Slide19.png",""
1118,70,"single-stim",13,14,2458251,"0-0","s01","img/Slide28.png",""
821,70,"single-stim",14,15,2459475,"0-0","s01","img/Slide05.png",""
991,70,"single-stim",15,16,2460867,"0-0","s01","img/Slide04.png",""
679,70,"single-stim",16,17,2461947,"0-0","s01","img/Slide02.png",""
1391,74,"single-stim",17,18,2463739,"0-0","s01","img/Slide17.png",""
2094,70,"single-stim",18,19,2466235,"0-0","s01","img/Slide10.png",""
1046,70,"single-stim",19,20,2467682,"0-0","s01","img/Slide02.png",""
990,70,"single-stim",20,21,2469074,"0-0","s01","img/Slide27.png",""
1830,70,"single-stim",21,22,2471307,"0-0","s01","img/Slide10.png",""
910,74,"single-stim",22,23,2472618,"0-0","s01","img/Slide19.png",""
942,70,"single-stim",23,24,2473962,"0-0","s01","img/Slide03.png",""
1070,70,"single-stim",24,25,2475434,"0-0","s01","img/Slide07.png",""
1574,70,"single-stim",25,26,2477410,"0-0","s01","img/Slide13.png",""
2271,70,"single-stim",26,27,2480082,"0-0","s01","img/Slide08.png",""
1558,74,"single-stim",27,28,2482042,"0-0","s01","img/Slide20.png",""
3623,70,"single-stim",28,29,2486066,"0-0","s01","img/Slide12.png",""
790,70,"single-stim",29,30,2487258,"0-0","s01","img/Slide05.png",""
910,74,"single-stim",30,31,2488570,"0-0","s01","img/Slide24.png",""
1070,74,"single-stim",31,32,2490042,"0-0","s01","img/Slide19.png",""
1016,70,"single-stim",32,33,2491458,"0-0","s01","img/Slide03.png",""
807,74,"single-stim",33,34,2492666,"0-0","s01","img/Slide22.png",""
1070,74,"single-stim",34,35,2494138,"0-0","s01","img/Slide24.png",""
1287,74,"single-stim",35,36,2495826,"0-0","s01","img/Slide22.png",""
838,70,"single-stim",36,37,2497065,"0-0","s01","img/Slide04.png",""
919,70,"single-stim",37,38,2498385,"0-0","s01","img/Slide05.png",""
902,70,"single-stim",38,39,2499689,"0-0","s01","img/Slide29.png",""
1182,74,"single-stim",39,40,2501273,"0-0","s01","img/Slide17.png",""
702,74,"single-stim",40,41,2502377,"0-0","s01","img/Slide22.png",""
1990,70,"single-stim",41,42,2504769,"0-0","s01","img/Slide30.png",""
1502,70,"single-stim",42,43,2506673,"0-0","s01","img/Slide15.png",""
1494,70,"single-stim",43,44,2508569,"0-0","s01","img/Slide28.png",""
934,74,"single-stim",44,45,2509905,"0-0","s01","img/Slide20.png",""
1543,70,"single-stim",45,46,2511849,"0-0","s01","img/Slide13.png",""
3854,74,"single-stim",46,47,2516105,"0-0","s01","img/Slide18.png",""
1087,74,"single-stim",47,48,2517593,"0-0","s01","img/Slide24.png",""
871,74,"single-stim",48,49,2518865,"0-0","s01","img/Slide18.png",""
1983,70,"single-stim",49,50,2521249,"0-0","s01","img/Slide12.png",""
1414,74,"single-stim",50,51,2523065,"0-0","s01","img/Slide20.png",""
982,70,"single-stim",51,52,2524449,"0-0","s01","img/Slide03.png",""
982,70,"single-stim",52,53,2525832,"0-0","s01","img/Slide28.png",""
830,70,"single-stim",53,54,2527065,"0-0","s01","img/Slide30.png",""
895,70,"single-stim",54,55,2528360,"0-0","s01","img/Slide05.png",""
990,74,"single-stim",55,56,2529752,"0-0","s01","img/Slide18.png",""
951,70,"single-stim",56,57,2531104,"0-0","s01","img/Slide05.png",""
4110,70,"single-stim",57,58,2535616,"0-0","s01","img/Slide15.png",""
1302,70,"single-stim",58,59,2537320,"0-0","s01","img/Slide28.png",""
2910,70,"single-stim",59,60,2540632,"0-0","s01","img/Slide08.png",""
766,70,"single-stim",60,61,2541800,"0-0","s01","img/Slide04.png",""
574,70,"single-stim",61,62,2542776,"0-0","s01","img/Slide27.png",""
766,74,"single-stim",62,63,2543944,"0-0","s01","img/Slide18.png",""
5182,70,"single-stim",63,64,2549528,"0-0","s01","img/Slide09.png",""
3998,74,"single-stim",64,65,2553928,"0-0","s01","img/Slide19.png",""
4060,70,"single-stim",65,66,2558391,"0-0","s01","img/Slide12.png",""
1494,70,"single-stim",66,67,2560287,"0-0","s01","img/Slide09.png",""
1174,74,"single-stim",67,68,2561863,"0-0","s01","img/Slide23.png",""
1326,70,"single-stim",68,69,2563591,"0-0","s01","img/Slide12.png",""
1246,70,"single-stim",69,70,2565239,"0-0","s01","img/Slide29.png",""
2414,70,"single-stim",70,71,2568055,"0-0","s01","img/Slide27.png",""
1262,74,"single-stim",71,72,2569719,"0-0","s01","img/Slide23.png",""
2983,70,"single-stim",72,73,2573103,"0-0","s01","img/Slide13.png",""
3062,70,"single-stim",73,74,2576567,"0-0","s01","img/Slide15.png",""
1390,74,"single-stim",74,75,2578359,"0-0","s01","img/Slide17.png",""
965,74,"single-stim",75,76,2579727,"0-0","s01","img/Slide25.png",""
583,74,"single-stim",76,77,2580711,"0-0","s01","img/Slide25.png",""
1215,74,"single-stim",77,78,2582327,"0-0","s01","img/Slide17.png",""
990,70,"single-stim",78,79,2583719,"0-0","s01","img/Slide08.png",""
998,74,"single-stim",79,80,2585119,"0-0","s01","img/Slide18.png",""
1071,70,"single-stim",80,81,2586590,"0-0","s01","img/Slide09.png",""
734,74,"single-stim",81,82,2587726,"0-0","s01","img/Slide23.png",""
1094,70,"single-stim",82,83,2589222,"0-0","s01","img/Slide30.png",""
631,70,"single-stim",83,84,2590254,"0-0","s01","img/Slide27.png",""
934,70,"single-stim",84,85,2591590,"0-0","s01","img/Slide09.png",""
798,74,"single-stim",85,86,2592790,"0-0","s01","img/Slide17.png",""
726,70,"single-stim",86,87,2593918,"0-0","s01","img/Slide04.png",""
687,70,"single-stim",87,88,2595006,"0-0","s01","img/Slide10.png",""
958,70,"single-stim",88,89,2596366,"0-0","s01","img/Slide14.png",""
1894,74,"single-stim",89,90,2598662,"0-0","s01","img/Slide23.png",""
1198,74,"single-stim",90,91,2600262,"0-0","s01","img/Slide20.png",""
878,70,"single-stim",91,92,2601542,"0-0","s01","img/Slide14.png",""
1134,70,"single-stim",92,93,2603078,"0-0","s01","img/Slide09.png",""
783,70,"single-stim",93,94,2604262,"0-0","s01","img/Slide02.png",""
1223,70,"single-stim",94,95,2605886,"0-0","s01","img/Slide30.png",""
1710,70,"single-stim",95,96,2607998,"0-0","s01","img/Slide15.png",""
1934,70,"single-stim",96,97,2610334,"0-0","s01","img/Slide08.png",""
2031,70,"single-stim",97,98,2612766,"0-0","s01","img/Slide13.png",""
663,70,"single-stim",98,99,2613830,"0-0","s01","img/Slide29.png",""
902,74,"single-stim",99,100,2615134,"0-0","s01","img/Slide19.png",""
1054,74,"single-stim",100,101,2616590,"0-0","s01","img/Slide20.png",""
694,70,"single-stim",101,102,2617686,"0-0","s01","img/Slide03.png",""
630,70,"single-stim",102,103,2618717,"0-0","s01","img/Slide07.png",""
718,74,"single-stim",103,104,2619837,"0-0","s01","img/Slide22.png",""
1166,70,"single-stim",104,105,2621405,"0-0","s01","img/Slide07.png",""
630,70,"single-stim",105,106,2622437,"0-0","s01","img/Slide04.png",""
655,70,"single-stim",106,107,2623493,"0-0","s01","img/Slide14.png",""
806,70,"single-stim",107,108,2624701,"0-0","s01","img/Slide02.png",""
1167,70,"single-stim",108,109,2626269,"0-0","s01","img/Slide15.png",""
622,70,"single-stim",109,110,2627293,"0-0","s01","img/Slide07.png",""
695,74,"single-stim",110,111,2628389,"0-0","s01","img/Slide22.png",""
1022,70,"single-stim",111,112,2629813,"0-0","s01","img/Slide13.png",""
758,70,"single-stim",112,113,2630973,"0-0","s01","img/Slide10.png",""
710,74,"single-stim",113,114,2632085,"0-0","s01","img/Slide25.png",""
855,74,"single-stim",114,115,2633341,"0-0","s01","img/Slide24.png",""
1014,70,"single-stim",115,116,2634757,"0-0","s01","img/Slide07.png",""
694,70,"single-stim",116,117,2635853,"0-0","s01","img/Slide14.png",""
1542,74,"single-stim",117,118,2637797,"0-0","s01","img/Slide23.png",""
863,74,"single-stim",118,119,2639061,"0-0","s01","img/Slide24.png",""
678,70,"single-stim",119,120,2640141,"0-0","s01","img/Slide29.png",""
218631,NA,"survey-text",0,121,2859177,"0-0","s01","","{""Q0"":""I'm not necessarily sure I chose the correct way to think about the question but after I decided my answer for several of them, following that criteria for the rest was easy."",""Q1"":""I compared the largest red dot to the largest blue dot, and the second largest red dot to the second largest blue dot and so on. So I would say it was accurate if the order in size of dots was red, blue, red, blue, red, blue, etc. I also much more highly valued the comparison of the two largest dots of each color. So for example (depending on the size of the dots in question, this wasn't a hard and fast thing) I might answer that the largest dots were red if the order in size was red, blue, red, blue, blue, blue, red, red."",""Q2"":""""}"
47745,49,"single-stim",0,122,2907924,"0-0","s01","<p style=""font-size:30px; text-align:center"">Thanks for participating!</p>",""
1155452,32,"text",0,0,1155456,"0-0","s02","",""
3746,70,"single-stim",0,1,1160222,"0-0","s02","img/Slide30.png",""
1638,74,"single-stim",1,2,1162261,"0-0","s02","img/Slide24.png",""
1222,74,"single-stim",2,3,1163885,"0-0","s02","img/Slide24.png",""
1263,70,"single-stim",3,4,1165549,"0-0","s02","img/Slide03.png",""
1063,70,"single-stim",4,5,1167013,"0-0","s02","img/Slide14.png",""
1039,70,"single-stim",5,6,1168453,"0-0","s02","img/Slide04.png",""
2366,70,"single-stim",6,7,1171221,"0-0","s02","img/Slide09.png",""
1270,70,"single-stim",7,8,1172892,"0-0","s02","img/Slide29.png",""
1143,70,"single-stim",8,9,1174452,"0-0","s02","img/Slide08.png",""
1316,70,"single-stim",9,10,1176172,"0-0","s02","img/Slide05.png",""
1086,70,"single-stim",10,11,1177660,"0-0","s02","img/Slide09.png",""
1062,70,"single-stim",11,12,1179124,"0-0","s02","img/Slide10.png",""
1214,74,"single-stim",12,13,1180740,"0-0","s02","img/Slide17.png",""
1286,70,"single-stim",13,14,1182428,"0-0","s02","img/Slide28.png",""
870,70,"single-stim",14,15,1183700,"0-0","s02","img/Slide14.png",""
1846,74,"single-stim",15,16,1185948,"0-0","s02","img/Slide22.png",""
822,70,"single-stim",16,17,1187172,"0-0","s02","img/Slide28.png",""
870,74,"single-stim",17,18,1188444,"0-0","s02","img/Slide20.png",""
1182,70,"single-stim",18,19,1190028,"0-0","s02","img/Slide15.png",""
774,70,"single-stim",19,20,1191204,"0-0","s02","img/Slide05.png",""
902,74,"single-stim",20,21,1192540,"0-0","s02","img/Slide20.png",""
774,70,"single-stim",21,22,1193719,"0-0","s02","img/Slide29.png",""
788,70,"single-stim",22,23,1194908,"0-0","s02","img/Slide04.png",""
782,70,"single-stim",23,24,1196092,"0-0","s02","img/Slide07.png",""
918,74,"single-stim",24,25,1197412,"0-0","s02","img/Slide24.png",""
662,70,"single-stim",25,26,1198476,"0-0","s02","img/Slide14.png",""
950,70,"single-stim",26,27,1199828,"0-0","s02","img/Slide07.png",""
711,70,"single-stim",27,28,1200940,"0-0","s02","img/Slide15.png",""
950,70,"single-stim",28,29,1202292,"0-0","s02","img/Slide08.png",""
774,70,"single-stim",29,30,1203468,"0-0","s02","img/Slide02.png",""
871,74,"single-stim",30,31,1204740,"0-0","s02","img/Slide23.png",""
886,74,"single-stim",31,32,1206027,"0-0","s02","img/Slide18.png",""
679,74,"single-stim",32,33,1207107,"0-0","s02","img/Slide24.png",""
1415,70,"single-stim",33,34,1208923,"0-0","s02","img/Slide13.png",""
822,70,"single-stim",34,35,1210147,"0-0","s02","img/Slide03.png",""
982,70,"single-stim",35,36,1211531,"0-0","s02","img/Slide07.png",""
726,74,"single-stim",36,37,1212659,"0-0","s02","img/Slide17.png",""
758,70,"single-stim",37,38,1213819,"0-0","s02","img/Slide02.png",""
1966,70,"single-stim",38,39,1216187,"0-0","s02","img/Slide07.png",""
967,70,"single-stim",39,40,1217555,"0-0","s02","img/Slide13.png",""
1022,74,"single-stim",40,41,1218979,"0-0","s02","img/Slide17.png",""
1222,74,"single-stim",41,42,1220603,"0-0","s02","img/Slide20.png",""
831,70,"single-stim",42,43,1221835,"0-0","s02","img/Slide10.png",""
1006,70,"single-stim",43,44,1223243,"0-0","s02","img/Slide13.png",""
758,70,"single-stim",44,45,1224403,"0-0","s02","img/Slide15.png",""
854,74,"single-stim",45,46,1225659,"0-0","s02","img/Slide20.png",""
607,74,"single-stim",46,47,1226667,"0-0","s02","img/Slide22.png",""
775,74,"single-stim",47,48,1227843,"0-0","s02","img/Slide25.png",""
735,70,"single-stim",48,49,1228979,"0-0","s02","img/Slide27.png",""
1014,74,"single-stim",49,50,1230395,"0-0","s02","img/Slide23.png",""
805,70,"single-stim",50,51,1231603,"0-0","s02","img/Slide15.png",""
726,70,"single-stim",51,52,1232730,"0-0","s02","img/Slide05.png",""
614,74,"single-stim",52,53,1233746,"0-0","s02","img/Slide22.png",""
806,74,"single-stim",53,54,1234954,"0-0","s02","img/Slide25.png",""
790,70,"single-stim",54,55,1236146,"0-0","s02","img/Slide13.png",""
750,70,"single-stim",55,56,1237298,"0-0","s02","img/Slide12.png",""
686,70,"single-stim",56,57,1238386,"0-0","s02","img/Slide03.png",""
583,74,"single-stim",57,58,1239370,"0-0","s02","img/Slide22.png",""
719,70,"single-stim",58,59,1240490,"0-0","s02","img/Slide18.png",""
967,70,"single-stim",59,60,1241858,"0-0","s02","img/Slide12.png",""
758,70,"single-stim",60,61,1243018,"0-0","s02","img/Slide03.png",""
766,70,"single-stim",61,62,1244186,"0-0","s02","img/Slide29.png",""
574,74,"single-stim",62,63,1245162,"0-0","s02","img/Slide22.png",""
774,74,"single-stim",63,64,1246338,"0-0","s02","img/Slide19.png",""
830,74,"single-stim",64,65,1247589,"0-0","s02","img/Slide25.png",""
699,74,"single-stim",65,66,1248690,"0-0","s02","img/Slide23.png",""
638,70,"single-stim",66,67,1249730,"0-0","s02","img/Slide09.png",""
598,70,"single-stim",67,68,1250730,"0-0","s02","img/Slide28.png",""
679,70,"single-stim",68,69,1251810,"0-0","s02","img/Slide10.png",""
695,70,"single-stim",69,70,1252906,"0-0","s02","img/Slide15.png",""
606,70,"single-stim",70,71,1253914,"0-0","s02","img/Slide28.png",""
694,70,"single-stim",71,72,1255010,"0-0","s02","img/Slide05.png",""
726,70,"single-stim",72,73,1256138,"0-0","s02","img/Slide14.png",""
566,70,"single-stim",73,74,1257106,"0-0","s02","img/Slide14.png",""
975,70,"single-stim",74,75,1258482,"0-0","s02","img/Slide12.png",""
534,74,"single-stim",75,76,1259418,"0-0","s02","img/Slide25.png",""
727,70,"single-stim",76,77,1260546,"0-0","s02","img/Slide28.png",""
743,70,"single-stim",77,78,1261690,"0-0","s02","img/Slide30.png",""
630,70,"single-stim",78,79,1262722,"0-0","s02","img/Slide02.png",""
878,74,"single-stim",79,80,1264001,"0-0","s02","img/Slide18.png",""
718,74,"single-stim",80,81,1265121,"0-0","s02","img/Slide17.png",""
742,74,"single-stim",81,82,1266265,"0-0","s02","img/Slide20.png",""
710,70,"single-stim",82,83,1267377,"0-0","s02","img/Slide29.png",""
726,70,"single-stim",83,84,1268505,"0-0","s02","img/Slide05.png",""
918,74,"single-stim",84,85,1269825,"0-0","s02","img/Slide19.png",""
758,74,"single-stim",85,86,1270985,"0-0","s02","img/Slide18.png",""
702,70,"single-stim",86,87,1272089,"0-0","s02","img/Slide30.png",""
598,70,"single-stim",87,88,1273089,"0-0","s02","img/Slide04.png",""
734,70,"single-stim",88,89,1274225,"0-0","s02","img/Slide10.png",""
2030,70,"single-stim",89,90,1276657,"0-0","s02","img/Slide07.png",""
974,70,"single-stim",90,91,1278033,"0-0","s02","img/Slide03.png",""
726,74,"single-stim",91,92,1279161,"0-0","s02","img/Slide23.png",""
582,74,"single-stim",92,93,1280145,"0-0","s02","img/Slide17.png",""
654,70,"single-stim",93,94,1281201,"0-0","s02","img/Slide04.png",""
774,74,"single-stim",94,95,1282377,"0-0","s02","img/Slide23.png",""
678,70,"single-stim",95,96,1283457,"0-0","s02","img/Slide02.png",""
687,70,"single-stim",96,97,1284545,"0-0","s02","img/Slide30.png",""
591,70,"single-stim",97,98,1285537,"0-0","s02","img/Slide04.png",""
751,70,"single-stim",98,99,1286689,"0-0","s02","img/Slide09.png",""
630,74,"single-stim",99,100,1287721,"0-0","s02","img/Slide25.png",""
662,70,"single-stim",100,101,1288785,"0-0","s02","img/Slide02.png",""
814,70,"single-stim",101,102,1290001,"0-0","s02","img/Slide12.png",""
598,70,"single-stim",102,103,1291001,"0-0","s02","img/Slide27.png",""
582,74,"single-stim",103,104,1291985,"0-0","s02","img/Slide30.png",""
742,70,"single-stim",104,105,1293129,"0-0","s02","img/Slide08.png",""
903,74,"single-stim",105,106,1294432,"0-0","s02","img/Slide18.png",""
958,70,"single-stim",106,107,1295793,"0-0","s02","img/Slide08.png",""
574,70,"single-stim",107,108,1296769,"0-0","s02","img/Slide27.png",""
750,74,"single-stim",108,109,1297920,"0-0","s02","img/Slide19.png",""
678,70,"single-stim",109,110,1299000,"0-0","s02","img/Slide27.png",""
750,70,"single-stim",110,111,1300152,"0-0","s02","img/Slide29.png",""
599,70,"single-stim",111,112,1301152,"0-0","s02","img/Slide27.png",""
822,70,"single-stim",112,113,1302376,"0-0","s02","img/Slide08.png",""
614,70,"single-stim",113,114,1303392,"0-0","s02","img/Slide12.png",""
799,74,"single-stim",114,115,1304592,"0-0","s02","img/Slide19.png",""
662,70,"single-stim",115,116,1305656,"0-0","s02","img/Slide10.png",""
1094,74,"single-stim",116,117,1307152,"0-0","s02","img/Slide13.png",""
1190,74,"single-stim",117,118,1308744,"0-0","s02","img/Slide19.png",""
750,70,"single-stim",118,119,1309896,"0-0","s02","img/Slide09.png",""
790,74,"single-stim",119,120,1311088,"0-0","s02","img/Slide24.png",""
65658,NA,"survey-text",0,121,1377185,"0-0","s02","","{""Q0"":""Some of them I couldn't tell if the red dots were bigger or the same size."",""Q1"":""There were more red dots, or there were a succession of pictures with more/bigger red dots."",""Q2"":""""}"
17659,49,"single-stim",0,122,1395845,"0-0","s02","<p style=""font-size:30px; text-align:center"">Thanks for participating!</p>",""
127078,68,"text",0,0,127081,"0-0","s03","",""
2233,70,"single-stim",0,1,130319,"0-0","s03","img/Slide15.png",""
1870,70,"single-stim",1,2,132590,"0-0","s03","img/Slide14.png",""
1519,74,"single-stim",2,3,134510,"0-0","s03","img/Slide20.png",""
2392,74,"single-stim",3,4,137302,"0-0","s03","img/Slide25.png",""
4206,70,"single-stim",4,5,141910,"0-0","s03","img/Slide07.png",""
2174,70,"single-stim",5,6,144485,"0-0","s03","img/Slide15.png",""
2318,74,"single-stim",6,7,147205,"0-0","s03","img/Slide24.png",""
1726,70,"single-stim",7,8,149333,"0-0","s03","img/Slide14.png",""
2702,70,"single-stim",8,9,152437,"0-0","s03","img/Slide04.png",""
1606,70,"single-stim",9,10,154445,"0-0","s03","img/Slide10.png",""
1326,70,"single-stim",10,11,156173,"0-0","s03","img/Slide29.png",""
4567,70,"single-stim",11,12,161141,"0-0","s03","img/Slide13.png",""
1398,70,"single-stim",12,13,162941,"0-0","s03","img/Slide10.png",""
1358,70,"single-stim",13,14,164701,"0-0","s03","img/Slide04.png",""
1200,70,"single-stim",14,15,166301,"0-0","s03","img/Slide13.png",""
1246,70,"single-stim",15,16,167949,"0-0","s03","img/Slide27.png",""
2438,70,"single-stim",16,17,170789,"0-0","s03","img/Slide09.png",""
1631,70,"single-stim",17,18,172821,"0-0","s03","img/Slide27.png",""
1205,70,"single-stim",18,19,174429,"0-0","s03","img/Slide05.png",""
1198,70,"single-stim",19,20,176028,"0-0","s03","img/Slide30.png",""
1454,70,"single-stim",20,21,177884,"0-0","s03","img/Slide09.png",""
3766,70,"single-stim",21,22,182052,"0-0","s03","img/Slide28.png",""
3366,70,"single-stim",22,23,185820,"0-0","s03","img/Slide12.png",""
974,70,"single-stim",23,24,187196,"0-0","s03","img/Slide30.png",""
2222,70,"single-stim",24,25,189820,"0-0","s03","img/Slide07.png",""
1775,74,"single-stim",25,26,191996,"0-0","s03","img/Slide25.png",""
1376,74,"single-stim",26,27,193772,"0-0","s03","img/Slide24.png",""
1223,70,"single-stim",27,28,195396,"0-0","s03","img/Slide12.png",""
3022,70,"single-stim",28,29,198820,"0-0","s03","img/Slide08.png",""
3462,70,"single-stim",29,30,202683,"0-0","s03","img/Slide28.png",""
2479,70,"single-stim",30,31,205563,"0-0","s03","img/Slide08.png",""
1671,74,"single-stim",31,32,207635,"0-0","s03","img/Slide22.png",""
1311,70,"single-stim",32,33,209347,"0-0","s03","img/Slide15.png",""
1190,70,"single-stim",33,34,210939,"0-0","s03","img/Slide13.png",""
1094,70,"single-stim",34,35,212435,"0-0","s03","img/Slide07.png",""
846,70,"single-stim",35,36,213683,"0-0","s03","img/Slide30.png",""
1542,74,"single-stim",36,37,215627,"0-0","s03","img/Slide23.png",""
1950,74,"single-stim",37,38,217979,"0-0","s03","img/Slide20.png",""
1478,74,"single-stim",38,39,219859,"0-0","s03","img/Slide18.png",""
1046,70,"single-stim",39,40,221307,"0-0","s03","img/Slide12.png",""
5479,74,"single-stim",40,41,227187,"0-0","s03","img/Slide19.png",""
1359,74,"single-stim",41,42,228947,"0-0","s03","img/Slide25.png",""
1454,74,"single-stim",42,43,230803,"0-0","s03","img/Slide18.png",""
1389,74,"single-stim",43,44,232594,"0-0","s03","img/Slide19.png",""
1239,70,"single-stim",44,45,234234,"0-0","s03","img/Slide12.png",""
998,70,"single-stim",45,46,235634,"0-0","s03","img/Slide02.png",""
1030,74,"single-stim",46,47,237066,"0-0","s03","img/Slide22.png",""
2046,70,"single-stim",47,48,239514,"0-0","s03","img/Slide14.png",""
1182,70,"single-stim",48,49,241098,"0-0","s03","img/Slide28.png",""
1087,70,"single-stim",49,50,242586,"0-0","s03","img/Slide05.png",""
3118,74,"single-stim",50,51,246106,"0-0","s03","img/Slide19.png",""
2326,74,"single-stim",51,52,248834,"0-0","s03","img/Slide20.png",""
776,70,"single-stim",52,53,250010,"0-0","s03","img/Slide12.png",""
1678,74,"single-stim",53,54,252090,"0-0","s03","img/Slide22.png",""
1223,70,"single-stim",54,55,253714,"0-0","s03","img/Slide03.png",""
1222,74,"single-stim",55,56,255338,"0-0","s03","img/Slide23.png",""
1511,70,"single-stim",56,57,257250,"0-0","s03","img/Slide07.png",""
1470,74,"single-stim",57,58,259122,"0-0","s03","img/Slide18.png",""
2207,74,"single-stim",58,59,261729,"0-0","s03","img/Slide22.png",""
1270,70,"single-stim",59,60,263401,"0-0","s03","img/Slide28.png",""
2798,70,"single-stim",60,61,266601,"0-0","s03","img/Slide09.png",""
1223,70,"single-stim",61,62,268225,"0-0","s03","img/Slide08.png",""
1454,70,"single-stim",62,63,270081,"0-0","s03","img/Slide10.png",""
718,74,"single-stim",63,64,271201,"0-0","s03","img/Slide24.png",""
887,70,"single-stim",64,65,272490,"0-0","s03","img/Slide29.png",""
1518,70,"single-stim",65,66,274409,"0-0","s03","img/Slide30.png",""
1046,70,"single-stim",66,67,275857,"0-0","s03","img/Slide15.png",""
1286,70,"single-stim",67,68,277545,"0-0","s03","img/Slide07.png",""
1894,74,"single-stim",68,69,279841,"0-0","s03","img/Slide20.png",""
758,70,"single-stim",69,70,281001,"0-0","s03","img/Slide02.png",""
975,70,"single-stim",70,71,282377,"0-0","s03","img/Slide29.png",""
999,70,"single-stim",71,72,283777,"0-0","s03","img/Slide04.png",""
1055,70,"single-stim",72,73,285233,"0-0","s03","img/Slide13.png",""
1119,74,"single-stim",73,74,286753,"0-0","s03","img/Slide20.png",""
1558,74,"single-stim",74,75,288713,"0-0","s03","img/Slide19.png",""
949,70,"single-stim",75,76,290065,"0-0","s03","img/Slide09.png",""
902,70,"single-stim",76,77,291368,"0-0","s03","img/Slide03.png",""
870,70,"single-stim",77,78,292640,"0-0","s03","img/Slide02.png",""
1966,74,"single-stim",78,79,295008,"0-0","s03","img/Slide17.png",""
662,70,"single-stim",79,80,296072,"0-0","s03","img/Slide05.png",""
918,70,"single-stim",80,81,297392,"0-0","s03","img/Slide04.png",""
1519,70,"single-stim",81,82,299312,"0-0","s03","img/Slide09.png",""
702,70,"single-stim",82,83,300416,"0-0","s03","img/Slide03.png",""
839,74,"single-stim",83,84,301656,"0-0","s03","img/Slide25.png",""
1134,74,"single-stim",84,85,303192,"0-0","s03","img/Slide23.png",""
1334,70,"single-stim",85,86,304928,"0-0","s03","img/Slide14.png",""
806,70,"single-stim",86,87,306136,"0-0","s03","img/Slide15.png",""
774,74,"single-stim",87,88,307312,"0-0","s03","img/Slide24.png",""
1262,74,"single-stim",88,89,308976,"0-0","s03","img/Slide17.png",""
766,70,"single-stim",89,90,310144,"0-0","s03","img/Slide03.png",""
990,70,"single-stim",90,91,311536,"0-0","s03","img/Slide27.png",""
719,70,"single-stim",91,92,312656,"0-0","s03","img/Slide02.png",""
1279,74,"single-stim",92,93,314336,"0-0","s03","img/Slide18.png",""
1031,70,"single-stim",93,94,315768,"0-0","s03","img/Slide10.png",""
718,70,"single-stim",94,95,316888,"0-0","s03","img/Slide29.png",""
854,70,"single-stim",95,96,318144,"0-0","s03","img/Slide13.png",""
718,70,"single-stim",96,97,319264,"0-0","s03","img/Slide02.png",""
679,70,"single-stim",97,98,320344,"0-0","s03","img/Slide04.png",""
798,70,"single-stim",98,99,321543,"0-0","s03","img/Slide03.png",""
734,74,"single-stim",99,100,322679,"0-0","s03","img/Slide17.png",""
958,74,"single-stim",100,101,324039,"0-0","s03","img/Slide23.png",""
1062,74,"single-stim",101,102,325503,"0-0","s03","img/Slide23.png",""
742,70,"single-stim",102,103,326647,"0-0","s03","img/Slide30.png",""
718,70,"single-stim",103,104,327767,"0-0","s03","img/Slide28.png",""
646,70,"single-stim",104,105,328815,"0-0","s03","img/Slide05.png",""
654,70,"single-stim",105,106,329871,"0-0","s03","img/Slide29.png",""
2030,70,"single-stim",106,107,332303,"0-0","s03","img/Slide08.png",""
614,70,"single-stim",107,108,333319,"0-0","s03","img/Slide05.png",""
726,70,"single-stim",108,109,334447,"0-0","s03","img/Slide27.png",""
598,74,"single-stim",109,110,335447,"0-0","s03","img/Slide24.png",""
758,70,"single-stim",110,111,336607,"0-0","s03","img/Slide27.png",""
654,74,"single-stim",111,112,337663,"0-0","s03","img/Slide22.png",""
1070,74,"single-stim",112,113,339135,"0-0","s03","img/Slide19.png",""
758,74,"single-stim",113,114,340295,"0-0","s03","img/Slide25.png",""
703,70,"single-stim",114,115,341399,"0-0","s03","img/Slide08.png",""
1606,70,"single-stim",115,116,343407,"0-0","s03","img/Slide14.png",""
743,74,"single-stim",116,117,344551,"0-0","s03","img/Slide17.png",""
736,74,"single-stim",117,118,345687,"0-0","s03","img/Slide17.png",""
1158,74,"single-stim",118,119,347247,"0-0","s03","img/Slide18.png",""
742,70,"single-stim",119,120,348391,"0-0","s03","img/Slide10.png",""
72624,NA,"survey-text",0,121,421421,"0-0","s03","","{""Q0"":""Yes, deciding what exactly I thought \""dots\"" specified, as opposed to just \""dot\"""",""Q1"":""I would say the sentence matched the picture whenever the biggest dot was red (even if other red dots were smaller than the blue dots)"",""Q2"":""N/A""}"
16589,49,"single-stim",0,122,439012,"0-0","s03","<p style=""font-size:30px; text-align:center"">Thanks for participating!</p>",""
2140961,32,"text",0,0,2140964,"0-0","s04","",""
2033,70,"single-stim",0,1,2144002,"0-0","s04","img/Slide04.png",""
1845,74,"single-stim",1,2,2146249,"0-0","s04","img/Slide28.png",""
1966,74,"single-stim",2,3,2148617,"0-0","s04","img/Slide20.png",""
4566,74,"single-stim",3,4,2153585,"0-0","s04","img/Slide12.png",""
1679,74,"single-stim",4,5,2155665,"0-0","s04","img/Slide17.png",""
2487,70,"single-stim",5,6,2158553,"0-0","s04","img/Slide03.png",""
1942,74,"single-stim",6,7,2160897,"0-0","s04","img/Slide19.png",""
4158,74,"single-stim",7,8,2165456,"0-0","s04","img/Slide12.png",""
2398,74,"single-stim",8,9,2168256,"0-0","s04","img/Slide22.png",""
5277,74,"single-stim",9,10,2173936,"0-0","s04","img/Slide15.png",""
4375,74,"single-stim",10,11,2178712,"0-0","s04","img/Slide09.png",""
2503,74,"single-stim",11,12,2181616,"0-0","s04","img/Slide20.png",""
1567,74,"single-stim",12,13,2183584,"0-0","s04","img/Slide17.png",""
3343,74,"single-stim",13,14,2187328,"0-0","s04","img/Slide14.png",""
2358,70,"single-stim",14,15,2190088,"0-0","s04","img/Slide02.png",""
3102,74,"single-stim",15,16,2193592,"0-0","s04","img/Slide09.png",""
2551,74,"single-stim",16,17,2196543,"0-0","s04","img/Slide18.png",""
4214,74,"single-stim",17,18,2201159,"0-0","s04","img/Slide12.png",""
7070,74,"single-stim",18,19,2208631,"0-0","s04","img/Slide10.png",""
1518,74,"single-stim",19,20,2210551,"0-0","s04","img/Slide24.png",""
3318,70,"single-stim",20,21,2214271,"0-0","s04","img/Slide30.png",""
1550,70,"single-stim",21,22,2216223,"0-0","s04","img/Slide29.png",""
2271,74,"single-stim",22,23,2218895,"0-0","s04","img/Slide14.png",""
5374,70,"single-stim",23,24,2224671,"0-0","s04","img/Slide28.png",""
1542,74,"single-stim",24,25,2226615,"0-0","s04","img/Slide17.png",""
2046,74,"single-stim",25,26,2229062,"0-0","s04","img/Slide14.png",""
1590,74,"single-stim",26,27,2231054,"0-0","s04","img/Slide17.png",""
3574,74,"single-stim",27,28,2235030,"0-0","s04","img/Slide24.png",""
2038,74,"single-stim",28,29,2237470,"0-0","s04","img/Slide18.png",""
1623,74,"single-stim",29,30,2239494,"0-0","s04","img/Slide24.png",""
1342,74,"single-stim",30,31,2241238,"0-0","s04","img/Slide23.png",""
1870,70,"single-stim",31,32,2243510,"0-0","s04","img/Slide03.png",""
1335,70,"single-stim",32,33,2245246,"0-0","s04","img/Slide02.png",""
1950,74,"single-stim",33,34,2247598,"0-0","s04","img/Slide07.png",""
1846,74,"single-stim",34,35,2249846,"0-0","s04","img/Slide09.png",""
2215,74,"single-stim",35,36,2252462,"0-0","s04","img/Slide07.png",""
1118,70,"single-stim",36,37,2253982,"0-0","s04","img/Slide04.png",""
1278,74,"single-stim",37,38,2255661,"0-0","s04","img/Slide22.png",""
3518,74,"single-stim",38,39,2259581,"0-0","s04","img/Slide23.png",""
1606,70,"single-stim",39,40,2261589,"0-0","s04","img/Slide28.png",""
943,70,"single-stim",40,41,2262933,"0-0","s04","img/Slide27.png",""
1046,70,"single-stim",41,42,2264381,"0-0","s04","img/Slide29.png",""
807,74,"single-stim",42,43,2265589,"0-0","s04","img/Slide25.png",""
1782,74,"single-stim",43,44,2267773,"0-0","s04","img/Slide20.png",""
1222,70,"single-stim",44,45,2269397,"0-0","s04","img/Slide03.png",""
734,70,"single-stim",45,46,2270533,"0-0","s04","img/Slide02.png",""
726,74,"single-stim",46,47,2271661,"0-0","s04","img/Slide23.png",""
2494,74,"single-stim",47,48,2274557,"0-0","s04","img/Slide15.png",""
1407,70,"single-stim",48,49,2276365,"0-0","s04","img/Slide28.png",""
1670,74,"single-stim",49,50,2278437,"0-0","s04","img/Slide12.png",""
4542,74,"single-stim",50,51,2283381,"0-0","s04","img/Slide10.png",""
887,70,"single-stim",51,52,2284668,"0-0","s04","img/Slide04.png",""
958,74,"single-stim",52,53,2286028,"0-0","s04","img/Slide24.png",""
2734,74,"single-stim",53,54,2289164,"0-0","s04","img/Slide20.png",""
1350,70,"single-stim",54,55,2290916,"0-0","s04","img/Slide30.png",""
974,70,"single-stim",55,56,2292292,"0-0","s04","img/Slide30.png",""
1230,70,"single-stim",56,57,2293924,"0-0","s04","img/Slide27.png",""
2902,74,"single-stim",57,58,2297228,"0-0","s04","img/Slide20.png",""
1166,70,"single-stim",58,59,2298796,"0-0","s04","img/Slide29.png",""
950,70,"single-stim",59,60,2300148,"0-0","s04","img/Slide05.png",""
1366,74,"single-stim",60,61,2301916,"0-0","s04","img/Slide07.png",""
1102,70,"single-stim",61,62,2303420,"0-0","s04","img/Slide05.png",""
1079,70,"single-stim",62,63,2304900,"0-0","s04","img/Slide30.png",""
3055,74,"single-stim",63,64,2308356,"0-0","s04","img/Slide08.png",""
1261,74,"single-stim",64,65,2310020,"0-0","s04","img/Slide07.png",""
1117,74,"single-stim",65,66,2311540,"0-0","s04","img/Slide25.png",""
951,70,"single-stim",66,67,2312892,"0-0","s04","img/Slide29.png",""
1614,70,"single-stim",67,68,2314907,"0-0","s04","img/Slide05.png",""
838,74,"single-stim",68,69,2316147,"0-0","s04","img/Slide22.png",""
734,74,"single-stim",69,70,2317283,"0-0","s04","img/Slide22.png",""
6174,74,"single-stim",70,71,2323859,"0-0","s04","img/Slide19.png",""
2982,74,"single-stim",71,72,2327243,"0-0","s04","img/Slide15.png",""
2750,74,"single-stim",72,73,2330395,"0-0","s04","img/Slide08.png",""
1990,74,"single-stim",73,74,2332787,"0-0","s04","img/Slide10.png",""
1206,70,"single-stim",74,75,2334395,"0-0","s04","img/Slide29.png",""
982,74,"single-stim",75,76,2335779,"0-0","s04","img/Slide13.png",""
894,74,"single-stim",76,77,2337075,"0-0","s04","img/Slide25.png",""
2703,74,"single-stim",77,78,2340179,"0-0","s04","img/Slide08.png",""
1782,74,"single-stim",78,79,2342363,"0-0","s04","img/Slide13.png",""
1158,74,"single-stim",79,80,2343923,"0-0","s04","img/Slide15.png",""
1142,70,"single-stim",80,81,2345466,"0-0","s04","img/Slide04.png",""
1142,74,"single-stim",81,82,2347010,"0-0","s04","img/Slide22.png",""
1710,74,"single-stim",82,83,2349122,"0-0","s04","img/Slide08.png",""
1678,74,"single-stim",83,84,2351202,"0-0","s04","img/Slide15.png",""
2302,74,"single-stim",84,85,2353906,"0-0","s04","img/Slide19.png",""
742,74,"single-stim",85,86,2355050,"0-0","s04","img/Slide23.png",""
1326,74,"single-stim",86,87,2356778,"0-0","s04","img/Slide13.png",""
1342,70,"single-stim",87,88,2358522,"0-0","s04","img/Slide05.png",""
3230,70,"single-stim",88,89,2362154,"0-0","s04","img/Slide09.png",""
4262,70,"single-stim",89,90,2366818,"0-0","s04","img/Slide10.png",""
1143,70,"single-stim",90,91,2368362,"0-0","s04","img/Slide03.png",""
839,74,"single-stim",91,92,2369602,"0-0","s04","img/Slide19.png",""
-1,-1,"single-stim",92,93,2380005,"0-0","s04","img/Slide12.png",""
2659,70,"single-stim",93,94,2383065,"0-0","s04","img/Slide02.png",""
1534,74,"single-stim",94,95,2385001,"0-0","s04","img/Slide18.png",""
766,70,"single-stim",95,96,2386169,"0-0","s04","img/Slide04.png",""
910,74,"single-stim",96,97,2387481,"0-0","s04","img/Slide23.png",""
2454,74,"single-stim",97,98,2390337,"0-0","s04","img/Slide09.png",""
1078,74,"single-stim",98,99,2391817,"0-0","s04","img/Slide24.png",""
2830,74,"single-stim",99,100,2395049,"0-0","s04","img/Slide25.png",""
1326,74,"single-stim",100,101,2396777,"0-0","s04","img/Slide19.png",""
1231,74,"single-stim",101,102,2398409,"0-0","s04","img/Slide08.png",""
1302,70,"single-stim",102,103,2400113,"0-0","s04","img/Slide03.png",""
687,70,"single-stim",103,104,2401201,"0-0","s04","img/Slide27.png",""
606,70,"single-stim",104,105,2402209,"0-0","s04","img/Slide02.png",""
1854,74,"single-stim",105,106,2404465,"0-0","s04","img/Slide14.png",""
1982,74,"single-stim",106,107,2406848,"0-0","s04","img/Slide10.png",""
1815,74,"single-stim",107,108,2409064,"0-0","s04","img/Slide07.png",""
1182,74,"single-stim",108,109,2410648,"0-0","s04","img/Slide13.png",""
1198,74,"single-stim",109,110,2412248,"0-0","s04","img/Slide18.png",""
1246,74,"single-stim",110,111,2413896,"0-0","s04","img/Slide17.png",""
1534,70,"single-stim",111,112,2415832,"0-0","s04","img/Slide28.png",""
1014,74,"single-stim",112,113,2417248,"0-0","s04","img/Slide25.png",""
1662,74,"single-stim",113,114,2419312,"0-0","s04","img/Slide18.png",""
1438,74,"single-stim",114,115,2421152,"0-0","s04","img/Slide14.png",""
894,70,"single-stim",115,116,2422448,"0-0","s04","img/Slide30.png",""
710,70,"single-stim",116,117,2423560,"0-0","s04","img/Slide27.png",""
1319,74,"single-stim",117,118,2425280,"0-0","s04","img/Slide13.png",""
1495,70,"single-stim",118,119,2427176,"0-0","s04","img/Slide27.png",""
1398,70,"single-stim",119,120,2428976,"0-0","s04","img/Slide05.png",""
51812,NA,"survey-text",0,121,2481194,"0-0","s04","","{""Q0"":""yes because occasionally there would be a blue dot that was larger than one of the red dots but still smaller than the largest red dot"",""Q1"":""the two biggest dots were red"",""Q2"":""no""}"
36250,49,"single-stim",0,122,2518445,"0-0","s04","<p style=""font-size:30px; text-align:center"">Thanks for participating!</p>",""
1256961,70,"text",0,0,1256965,"0-0","s05","",""
2816,70,"single-stim",0,1,1260787,"0-0","s05","img/Slide03.png",""
2293,70,"single-stim",1,2,1263483,"0-0","s05","img/Slide03.png",""
2037,74,"single-stim",2,3,1265922,"0-0","s05","img/Slide20.png",""
2359,70,"single-stim",3,4,1268682,"0-0","s05","img/Slide03.png",""
3870,74,"single-stim",4,5,1272954,"0-0","s05","img/Slide17.png",""
1622,74,"single-stim",5,6,1274978,"0-0","s05","img/Slide25.png",""
3222,74,"single-stim",6,7,1278602,"0-0","s05","img/Slide20.png",""
1862,74,"single-stim",7,8,1280866,"0-0","s05","img/Slide24.png",""
2686,70,"single-stim",8,9,1283954,"0-0","s05","img/Slide12.png",""
2805,70,"single-stim",9,10,1287162,"0-0","s05","img/Slide05.png",""
1814,70,"single-stim",10,11,1289378,"0-0","s05","img/Slide07.png",""
1494,74,"single-stim",11,12,1291273,"0-0","s05","img/Slide20.png",""
1062,70,"single-stim",12,13,1292737,"0-0","s05","img/Slide27.png",""
1382,70,"single-stim",13,14,1294521,"0-0","s05","img/Slide14.png",""
2302,70,"single-stim",14,15,1297225,"0-0","s05","img/Slide15.png",""
1894,70,"single-stim",15,16,1299521,"0-0","s05","img/Slide12.png",""
1470,74,"single-stim",16,17,1301393,"0-0","s05","img/Slide25.png",""
1030,70,"single-stim",17,18,1302825,"0-0","s05","img/Slide03.png",""
1158,70,"single-stim",18,19,1304385,"0-0","s05","img/Slide27.png",""
2654,74,"single-stim",19,20,1307441,"0-0","s05","img/Slide22.png",""
1142,70,"single-stim",20,21,1308985,"0-0","s05","img/Slide04.png",""
1878,70,"single-stim",21,22,1311265,"0-0","s05","img/Slide05.png",""
1510,70,"single-stim",22,23,1313177,"0-0","s05","img/Slide30.png",""
1167,70,"single-stim",23,24,1314745,"0-0","s05","img/Slide15.png",""
1430,74,"single-stim",24,25,1316577,"0-0","s05","img/Slide09.png",""
1383,70,"single-stim",25,26,1318361,"0-0","s05","img/Slide08.png",""
1254,74,"single-stim",26,27,1320016,"0-0","s05","img/Slide23.png",""
1230,74,"single-stim",27,28,1321649,"0-0","s05","img/Slide18.png",""
1070,70,"single-stim",28,29,1323120,"0-0","s05","img/Slide28.png",""
1174,70,"single-stim",29,30,1324696,"0-0","s05","img/Slide10.png",""
1190,70,"single-stim",30,31,1326288,"0-0","s05","img/Slide30.png",""
1022,74,"single-stim",31,32,1327712,"0-0","s05","img/Slide17.png",""
950,70,"single-stim",32,33,1329064,"0-0","s05","img/Slide07.png",""
846,70,"single-stim",33,34,1330312,"0-0","s05","img/Slide12.png",""
822,70,"single-stim",34,35,1331536,"0-0","s05","img/Slide30.png",""
1511,70,"single-stim",35,36,1333448,"0-0","s05","img/Slide28.png",""
990,70,"single-stim",36,37,1334840,"0-0","s05","img/Slide04.png",""
942,74,"single-stim",37,38,1336184,"0-0","s05","img/Slide18.png",""
766,70,"single-stim",38,39,1337352,"0-0","s05","img/Slide29.png",""
1054,70,"single-stim",39,40,1338808,"0-0","s05","img/Slide07.png",""
1534,70,"single-stim",40,41,1340744,"0-0","s05","img/Slide15.png",""
767,70,"single-stim",41,42,1341912,"0-0","s05","img/Slide29.png",""
686,70,"single-stim",42,43,1343000,"0-0","s05","img/Slide10.png",""
622,74,"single-stim",43,44,1344024,"0-0","s05","img/Slide17.png",""
830,70,"single-stim",44,45,1345256,"0-0","s05","img/Slide03.png",""
655,70,"single-stim",45,46,1346312,"0-0","s05","img/Slide25.png",""
2382,74,"single-stim",46,47,1349096,"0-0","s05","img/Slide17.png",""
1246,70,"single-stim",47,48,1350743,"0-0","s05","img/Slide08.png",""
974,70,"single-stim",48,49,1352120,"0-0","s05","img/Slide10.png",""
1631,74,"single-stim",49,50,1354151,"0-0","s05","img/Slide17.png",""
782,74,"single-stim",50,51,1355335,"0-0","s05","img/Slide25.png",""
718,70,"single-stim",51,52,1356455,"0-0","s05","img/Slide27.png",""
1350,70,"single-stim",52,53,1358207,"0-0","s05","img/Slide12.png",""
694,74,"single-stim",53,54,1359303,"0-0","s05","img/Slide18.png",""
1454,70,"single-stim",54,55,1361159,"0-0","s05","img/Slide09.png",""
822,70,"single-stim",55,56,1362383,"0-0","s05","img/Slide13.png",""
902,70,"single-stim",56,57,1363687,"0-0","s05","img/Slide30.png",""
702,70,"single-stim",57,58,1364791,"0-0","s05","img/Slide09.png",""
646,70,"single-stim",58,59,1365839,"0-0","s05","img/Slide04.png",""
1798,70,"single-stim",59,60,1368039,"0-0","s05","img/Slide13.png",""
1822,74,"single-stim",60,61,1370263,"0-0","s05","img/Slide19.png",""
1086,70,"single-stim",61,62,1371751,"0-0","s05","img/Slide02.png",""
1479,74,"single-stim",62,63,1373631,"0-0","s05","img/Slide23.png",""
1350,70,"single-stim",63,64,1375383,"0-0","s05","img/Slide19.png",""
2327,70,"single-stim",64,65,1378111,"0-0","s05","img/Slide05.png",""
2021,70,"single-stim",65,66,1380535,"0-0","s05","img/Slide14.png",""
1982,70,"single-stim",66,67,1382918,"0-0","s05","img/Slide22.png",""
1366,70,"single-stim",67,68,1384686,"0-0","s05","img/Slide04.png",""
1558,70,"single-stim",68,69,1386646,"0-0","s05","img/Slide30.png",""
926,70,"single-stim",69,70,1387974,"0-0","s05","img/Slide09.png",""
1542,74,"single-stim",70,71,1389918,"0-0","s05","img/Slide18.png",""
1887,74,"single-stim",71,72,1392206,"0-0","s05","img/Slide23.png",""
1742,70,"single-stim",72,73,1394350,"0-0","s05","img/Slide15.png",""
862,74,"single-stim",73,74,1395614,"0-0","s05","img/Slide14.png",""
1574,70,"single-stim",74,75,1397590,"0-0","s05","img/Slide10.png",""
1142,74,"single-stim",75,76,1399134,"0-0","s05","img/Slide23.png",""
1029,70,"single-stim",76,77,1400566,"0-0","s05","img/Slide14.png",""
799,74,"single-stim",77,78,1401766,"0-0","s05","img/Slide24.png",""
2471,70,"single-stim",78,79,1404638,"0-0","s05","img/Slide27.png",""
2109,74,"single-stim",79,80,1407150,"0-0","s05","img/Slide14.png",""
1054,70,"single-stim",80,81,1408606,"0-0","s05","img/Slide13.png",""
758,70,"single-stim",81,82,1409766,"0-0","s05","img/Slide27.png",""
814,70,"single-stim",82,83,1410982,"0-0","s05","img/Slide07.png",""
934,70,"single-stim",83,84,1412317,"0-0","s05","img/Slide15.png",""
1142,74,"single-stim",84,85,1413861,"0-0","s05","img/Slide19.png",""
1190,70,"single-stim",85,86,1415453,"0-0","s05","img/Slide08.png",""
934,74,"single-stim",86,87,1416789,"0-0","s05","img/Slide18.png",""
1006,70,"single-stim",87,88,1418197,"0-0","s05","img/Slide20.png",""
1142,74,"single-stim",88,89,1419741,"0-0","s05","img/Slide12.png",""
798,74,"single-stim",89,90,1420941,"0-0","s05","img/Slide09.png",""
1502,74,"single-stim",90,91,1422845,"0-0","s05","img/Slide22.png",""
1374,70,"single-stim",91,92,1424621,"0-0","s05","img/Slide05.png",""
1110,70,"single-stim",92,93,1426133,"0-0","s05","img/Slide02.png",""
926,70,"single-stim",93,94,1427461,"0-0","s05","img/Slide08.png",""
846,70,"single-stim",94,95,1428709,"0-0","s05","img/Slide13.png",""
839,70,"single-stim",95,96,1429949,"0-0","s05","img/Slide13.png",""
782,74,"single-stim",96,97,1431133,"0-0","s05","img/Slide25.png",""
1070,70,"single-stim",97,98,1432605,"0-0","s05","img/Slide29.png",""
830,74,"single-stim",98,99,1433837,"0-0","s05","img/Slide23.png",""
767,70,"single-stim",99,100,1435005,"0-0","s05","img/Slide28.png",""
838,74,"single-stim",100,101,1436245,"0-0","s05","img/Slide19.png",""
870,70,"single-stim",101,102,1437517,"0-0","s05","img/Slide05.png",""
742,74,"single-stim",102,103,1438661,"0-0","s05","img/Slide02.png",""
1374,70,"single-stim",103,104,1440436,"0-0","s05","img/Slide07.png",""
1462,74,"single-stim",104,105,1442300,"0-0","s05","img/Slide20.png",""
846,70,"single-stim",105,106,1443548,"0-0","s05","img/Slide24.png",""
2302,74,"single-stim",106,107,1446252,"0-0","s05","img/Slide29.png",""
1214,70,"single-stim",107,108,1447868,"0-0","s05","img/Slide08.png",""
878,70,"single-stim",108,109,1449148,"0-0","s05","img/Slide28.png",""
718,70,"single-stim",109,110,1450268,"0-0","s05","img/Slide04.png",""
758,70,"single-stim",110,111,1451428,"0-0","s05","img/Slide02.png",""
854,70,"single-stim",111,112,1452684,"0-0","s05","img/Slide29.png",""
726,70,"single-stim",112,113,1453812,"0-0","s05","img/Slide02.png",""
759,74,"single-stim",113,114,1454972,"0-0","s05","img/Slide24.png",""
662,74,"single-stim",114,115,1456036,"0-0","s05","img/Slide24.png",""
1382,70,"single-stim",115,116,1457820,"0-0","s05","img/Slide10.png",""
838,74,"single-stim",116,117,1459060,"0-0","s05","img/Slide22.png",""
686,74,"single-stim",117,118,1460148,"0-0","s05","img/Slide22.png",""
1414,70,"single-stim",118,119,1461964,"0-0","s05","img/Slide28.png",""
1477,74,"single-stim",119,120,1463844,"0-0","s05","img/Slide19.png",""
19082,NA,"survey-text",0,121,1483332,"0-0","s05","","{""Q0"":""no, was easy to tell"",""Q1"":""red dots were bigger"",""Q2"":""""}"
13620,49,"single-stim",0,122,1497955,"0-0","s05","<p style=""font-size:30px; text-align:center"">Thanks for participating!</p>",""
4365977,70,"text",0,0,4365979,"0-0","s06","",""
2937,74,"single-stim",0,1,4369921,"0-0","s06","img/Slide25.png",""
2533,74,"single-stim",1,2,4372857,"0-0","s06","img/Slide17.png",""
1702,70,"single-stim",2,3,4374961,"0-0","s06","img/Slide02.png",""
1846,74,"single-stim",3,4,4377208,"0-0","s06","img/Slide22.png",""
2534,70,"single-stim",4,5,4380144,"0-0","s06","img/Slide07.png",""
2014,70,"single-stim",5,6,4382560,"0-0","s06","img/Slide07.png",""
1646,70,"single-stim",6,7,4384608,"0-0","s06","img/Slide27.png",""
2646,74,"single-stim",7,8,4387656,"0-0","s06","img/Slide22.png",""
2046,70,"single-stim",8,9,4390104,"0-0","s06","img/Slide08.png",""
2222,70,"single-stim",9,10,4392728,"0-0","s06","img/Slide07.png",""
1214,74,"single-stim",10,11,4394344,"0-0","s06","img/Slide23.png",""
2174,70,"single-stim",11,12,4396920,"0-0","s06","img/Slide05.png",""
1502,70,"single-stim",12,13,4398824,"0-0","s06","img/Slide27.png",""
1285,70,"single-stim",13,14,4400512,"0-0","s06","img/Slide10.png",""
1366,70,"single-stim",14,15,4402280,"0-0","s06","img/Slide30.png",""
1269,70,"single-stim",15,16,4403952,"0-0","s06","img/Slide29.png",""
1502,74,"single-stim",16,17,4405856,"0-0","s06","img/Slide24.png",""
1630,70,"single-stim",17,18,4407887,"0-0","s06","img/Slide30.png",""
2822,70,"single-stim",18,19,4411111,"0-0","s06","img/Slide28.png",""
3118,70,"single-stim",19,20,4414631,"0-0","s06","img/Slide12.png",""
1398,70,"single-stim",20,21,4416431,"0-0","s06","img/Slide08.png",""
3222,74,"single-stim",21,22,4420056,"0-0","s06","img/Slide23.png",""
2478,74,"single-stim",22,23,4422935,"0-0","s06","img/Slide20.png",""
1654,70,"single-stim",23,24,4424991,"0-0","s06","img/Slide10.png",""
1286,74,"single-stim",24,25,4426679,"0-0","s06","img/Slide19.png",""
1278,70,"single-stim",25,26,4428359,"0-0","s06","img/Slide29.png",""
2039,74,"single-stim",26,27,4430799,"0-0","s06","img/Slide24.png",""
1582,74,"single-stim",27,28,4432782,"0-0","s06","img/Slide18.png",""
1846,74,"single-stim",28,29,4435030,"0-0","s06","img/Slide20.png",""
2327,74,"single-stim",29,30,4437758,"0-0","s06","img/Slide25.png",""
2038,70,"single-stim",30,31,4440198,"0-0","s06","img/Slide03.png",""
2886,74,"single-stim",31,32,4443486,"0-0","s06","img/Slide18.png",""
2750,70,"single-stim",32,33,4446638,"0-0","s06","img/Slide08.png",""
982,70,"single-stim",33,34,4448022,"0-0","s06","img/Slide02.png",""
1711,70,"single-stim",34,35,4450134,"0-0","s06","img/Slide30.png",""
814,74,"single-stim",35,36,4451350,"0-0","s06","img/Slide22.png",""
1839,70,"single-stim",36,37,4453590,"0-0","s06","img/Slide14.png",""
1134,70,"single-stim",37,38,4455126,"0-0","s06","img/Slide04.png",""
1542,70,"single-stim",38,39,4457070,"0-0","s06","img/Slide10.png",""
7870,74,"single-stim",39,40,4465341,"0-0","s06","img/Slide19.png",""
2158,70,"single-stim",40,41,4467901,"0-0","s06","img/Slide12.png",""
3318,74,"single-stim",41,42,4471621,"0-0","s06","img/Slide22.png",""
1838,70,"single-stim",42,43,4473861,"0-0","s06","img/Slide05.png",""
3342,70,"single-stim",43,44,4477605,"0-0","s06","img/Slide14.png",""
1198,70,"single-stim",44,45,4479205,"0-0","s06","img/Slide27.png",""
5941,74,"single-stim",45,46,4485549,"0-0","s06","img/Slide18.png",""
5678,74,"single-stim",46,47,4491628,"0-0","s06","img/Slide20.png",""
1815,70,"single-stim",47,48,4493844,"0-0","s06","img/Slide29.png",""
8222,70,"single-stim",48,49,4502468,"0-0","s06","img/Slide10.png",""
1510,70,"single-stim",49,50,4504380,"0-0","s06","img/Slide07.png",""
2294,70,"single-stim",50,51,4507076,"0-0","s06","img/Slide28.png",""
2791,70,"single-stim",51,52,4510268,"0-0","s06","img/Slide12.png",""
1134,70,"single-stim",52,53,4511804,"0-0","s06","img/Slide04.png",""
822,74,"single-stim",53,54,4513028,"0-0","s06","img/Slide18.png",""
1910,70,"single-stim",54,55,4515340,"0-0","s06","img/Slide03.png",""
4062,70,"single-stim",55,56,4519803,"0-0","s06","img/Slide15.png",""
1550,70,"single-stim",56,57,4521755,"0-0","s06","img/Slide27.png",""
2190,74,"single-stim",57,58,4524347,"0-0","s06","img/Slide25.png",""
1110,70,"single-stim",58,59,4525859,"0-0","s06","img/Slide02.png",""
1654,74,"single-stim",59,60,4527915,"0-0","s06","img/Slide23.png",""
1518,70,"single-stim",60,61,4529835,"0-0","s06","img/Slide14.png",""
3359,74,"single-stim",61,62,4533595,"0-0","s06","img/Slide19.png",""
1398,70,"single-stim",62,63,4535395,"0-0","s06","img/Slide15.png",""
3142,70,"single-stim",63,64,4538939,"0-0","s06","img/Slide28.png",""
1822,70,"single-stim",64,65,4541163,"0-0","s06","img/Slide03.png",""
1045,74,"single-stim",65,66,4542611,"0-0","s06","img/Slide17.png",""
3758,70,"single-stim",66,67,4546771,"0-0","s06","img/Slide14.png",""
1454,70,"single-stim",67,68,4548626,"0-0","s06","img/Slide07.png",""
4406,74,"single-stim",68,69,4553434,"0-0","s06","img/Slide19.png",""
4702,74,"single-stim",69,70,4558538,"0-0","s06","img/Slide13.png",""
7550,70,"single-stim",70,71,4566490,"0-0","s06","img/Slide08.png",""
1287,70,"single-stim",71,72,4568178,"0-0","s06","img/Slide05.png",""
1310,74,"single-stim",72,73,4569890,"0-0","s06","img/Slide24.png",""
1527,70,"single-stim",73,74,4571818,"0-0","s06","img/Slide09.png",""
2470,70,"single-stim",74,75,4574690,"0-0","s06","img/Slide28.png",""
2102,70,"single-stim",75,76,4577193,"0-0","s06","img/Slide03.png",""
1046,74,"single-stim",76,77,4578641,"0-0","s06","img/Slide24.png",""
2406,70,"single-stim",77,78,4581449,"0-0","s06","img/Slide04.png",""
2230,70,"single-stim",78,79,4584081,"0-0","s06","img/Slide14.png",""
4991,74,"single-stim",79,80,4589473,"0-0","s06","img/Slide13.png",""
3527,74,"single-stim",80,81,4593401,"0-0","s06","img/Slide25.png",""
838,70,"single-stim",81,82,4594641,"0-0","s06","img/Slide05.png",""
2903,70,"single-stim",82,83,4597945,"0-0","s06","img/Slide13.png",""
2086,70,"single-stim",83,84,4600433,"0-0","s06","img/Slide29.png",""
830,74,"single-stim",84,85,4601664,"0-0","s06","img/Slide24.png",""
2678,70,"single-stim",85,86,4604744,"0-0","s06","img/Slide09.png",""
990,70,"single-stim",86,87,4606137,"0-0","s06","img/Slide02.png",""
1910,74,"single-stim",87,88,4608448,"0-0","s06","img/Slide17.png",""
1966,74,"single-stim",88,89,4610816,"0-0","s06","img/Slide25.png",""
942,70,"single-stim",89,90,4612160,"0-0","s06","img/Slide02.png",""
1358,70,"single-stim",90,91,4613920,"0-0","s06","img/Slide04.png",""
1302,74,"single-stim",91,92,4615624,"0-0","s06","img/Slide23.png",""
4079,70,"single-stim",92,93,4620104,"0-0","s06","img/Slide28.png",""
1518,70,"single-stim",93,94,4622024,"0-0","s06","img/Slide08.png",""
1406,70,"single-stim",94,95,4623832,"0-0","s06","img/Slide27.png",""
2967,70,"single-stim",95,96,4627200,"0-0","s06","img/Slide09.png",""
1462,70,"single-stim",96,97,4629064,"0-0","s06","img/Slide15.png",""
1399,74,"single-stim",97,98,4630864,"0-0","s06","img/Slide17.png",""
1182,70,"single-stim",98,99,4632447,"0-0","s06","img/Slide05.png",""
1142,70,"single-stim",99,100,4633991,"0-0","s06","img/Slide15.png",""
1310,74,"single-stim",100,101,4635703,"0-0","s06","img/Slide17.png",""
1326,74,"single-stim",101,102,4637431,"0-0","s06","img/Slide20.png",""
966,70,"single-stim",102,103,4638799,"0-0","s06","img/Slide04.png",""
982,70,"single-stim",103,104,4640183,"0-0","s06","img/Slide30.png",""
3110,74,"single-stim",104,105,4643695,"0-0","s06","img/Slide20.png",""
814,70,"single-stim",105,106,4644911,"0-0","s06","img/Slide15.png",""
1078,74,"single-stim",106,107,4646391,"0-0","s06","img/Slide23.png",""
1094,70,"single-stim",107,108,4647887,"0-0","s06","img/Slide12.png",""
2007,74,"single-stim",108,109,4650295,"0-0","s06","img/Slide19.png",""
902,70,"single-stim",109,110,4651599,"0-0","s06","img/Slide29.png",""
1054,70,"single-stim",110,111,4653055,"0-0","s06","img/Slide03.png",""
1374,70,"single-stim",111,112,4654831,"0-0","s06","img/Slide13.png",""
2374,70,"single-stim",112,113,4657607,"0-0","s06","img/Slide30.png",""
1822,70,"single-stim",113,114,4659831,"0-0","s06","img/Slide09.png",""
1231,70,"single-stim",114,115,4661462,"0-0","s06","img/Slide12.png",""
1062,70,"single-stim",115,116,4662926,"0-0","s06","img/Slide09.png",""
974,70,"single-stim",116,117,4664302,"0-0","s06","img/Slide10.png",""
854,74,"single-stim",117,118,4665558,"0-0","s06","img/Slide22.png",""
974,70,"single-stim",118,119,4666934,"0-0","s06","img/Slide13.png",""
1014,74,"single-stim",119,120,4668350,"0-0","s06","img/Slide18.png",""
179824,NA,"survey-text",0,121,4848580,"0-0","s06","","{""Q0"":""Having the circles move to different positions and focusing on the colors themselves for a long time"",""Q1"":""It was easier to see what dots were bigger when they were all in a straight line, from largest to smallest."",""Q2"":""No""}"
17026,49,"single-stim",0,122,4866607,"0-0","s06","<p style=""font-size:30px; text-align:center"">Thanks for participating!</p>",""
6668957,32,"text",0,0,6668960,"0-0","s07","",""
-1,-1,"single-stim",0,1,6679965,"0-0","s07","img/Slide30.png",""
174,70,"single-stim",1,2,6680541,"0-0","s07","img/Slide22.png",""
2190,70,"single-stim",2,3,6683133,"0-0","s07","img/Slide27.png",""
2070,74,"single-stim",3,4,6685605,"0-0","s07","img/Slide24.png",""
1559,70,"single-stim",4,5,6687565,"0-0","s07","img/Slide02.png",""
2453,74,"single-stim",5,6,6690420,"0-0","s07","img/Slide07.png",""
3622,70,"single-stim",6,7,6694444,"0-0","s07","img/Slide15.png",""
2990,70,"single-stim",7,8,6697836,"0-0","s07","img/Slide27.png",""
3182,70,"single-stim",8,9,6701420,"0-0","s07","img/Slide27.png",""
1934,70,"single-stim",9,10,6703756,"0-0","s07","img/Slide27.png",""
2535,70,"single-stim",10,11,6706692,"0-0","s07","img/Slide10.png",""
4622,74,"single-stim",11,12,6711716,"0-0","s07","img/Slide07.png",""
1767,70,"single-stim",12,13,6713884,"0-0","s07","img/Slide29.png",""
4326,70,"single-stim",13,14,6718612,"0-0","s07","img/Slide13.png",""
1942,70,"single-stim",14,15,6720956,"0-0","s07","img/Slide05.png",""
2622,70,"single-stim",15,16,6723979,"0-0","s07","img/Slide13.png",""
2590,70,"single-stim",16,17,6726971,"0-0","s07","img/Slide29.png",""
2422,74,"single-stim",17,18,6729795,"0-0","s07","img/Slide23.png",""
2094,70,"single-stim",18,19,6732291,"0-0","s07","img/Slide03.png",""
1654,74,"single-stim",19,20,6734347,"0-0","s07","img/Slide22.png",""
2182,70,"single-stim",20,21,6736931,"0-0","s07","img/Slide05.png",""
1790,70,"single-stim",21,22,6739123,"0-0","s07","img/Slide10.png",""
2318,70,"single-stim",22,23,6741843,"0-0","s07","img/Slide30.png",""
3055,70,"single-stim",23,24,6745299,"0-0","s07","img/Slide28.png",""
2959,70,"single-stim",24,25,6748659,"0-0","s07","img/Slide05.png",""
1694,74,"single-stim",25,26,6750755,"0-0","s07","img/Slide17.png",""
3478,70,"single-stim",26,27,6754634,"0-0","s07","img/Slide10.png",""
2462,74,"single-stim",27,28,6757498,"0-0","s07","img/Slide20.png",""
1494,74,"single-stim",28,29,6759394,"0-0","s07","img/Slide18.png",""
1582,70,"single-stim",29,30,6761378,"0-0","s07","img/Slide04.png",""
2598,74,"single-stim",30,31,6764378,"0-0","s07","img/Slide08.png",""
6094,74,"single-stim",31,32,6770874,"0-0","s07","img/Slide24.png",""
2919,74,"single-stim",32,33,6774194,"0-0","s07","img/Slide19.png",""
4878,70,"single-stim",33,34,6779474,"0-0","s07","img/Slide28.png",""
2958,74,"single-stim",34,35,6782833,"0-0","s07","img/Slide09.png",""
1446,70,"single-stim",35,36,6784681,"0-0","s07","img/Slide04.png",""
3070,74,"single-stim",36,37,6788153,"0-0","s07","img/Slide18.png",""
3374,70,"single-stim",37,38,6791929,"0-0","s07","img/Slide30.png",""
3518,70,"single-stim",38,39,6795849,"0-0","s07","img/Slide02.png",""
935,70,"single-stim",39,40,6797185,"0-0","s07","img/Slide05.png",""
4390,74,"single-stim",40,41,6801977,"0-0","s07","img/Slide09.png",""
3510,70,"single-stim",41,42,6805889,"0-0","s07","img/Slide08.png",""
2142,70,"single-stim",42,43,6808433,"0-0","s07","img/Slide12.png",""
1422,70,"single-stim",43,44,6810257,"0-0","s07","img/Slide28.png",""
934,70,"single-stim",44,45,6811592,"0-0","s07","img/Slide27.png",""
1598,74,"single-stim",45,46,6813592,"0-0","s07","img/Slide24.png",""
1150,70,"single-stim",46,47,6815144,"0-0","s07","img/Slide02.png",""
991,70,"single-stim",47,48,6816536,"0-0","s07","img/Slide05.png",""
2742,74,"single-stim",48,49,6819680,"0-0","s07","img/Slide09.png",""
3718,70,"single-stim",49,50,6823800,"0-0","s07","img/Slide13.png",""
1126,70,"single-stim",50,51,6825328,"0-0","s07","img/Slide10.png",""
1126,74,"single-stim",51,52,6826856,"0-0","s07","img/Slide17.png",""
4238,70,"single-stim",52,53,6831496,"0-0","s07","img/Slide08.png",""
1734,70,"single-stim",53,54,6833632,"0-0","s07","img/Slide03.png",""
1958,74,"single-stim",54,55,6835992,"0-0","s07","img/Slide23.png",""
2438,74,"single-stim",55,56,6838831,"0-0","s07","img/Slide19.png",""
1758,70,"single-stim",56,57,6840991,"0-0","s07","img/Slide29.png",""
2798,74,"single-stim",57,58,6844191,"0-0","s07","img/Slide20.png",""
3271,74,"single-stim",58,59,6847863,"0-0","s07","img/Slide09.png",""
2054,74,"single-stim",59,60,6850319,"0-0","s07","img/Slide17.png",""
2870,74,"single-stim",60,61,6853591,"0-0","s07","img/Slide14.png",""
3110,74,"single-stim",61,62,6857103,"0-0","s07","img/Slide14.png",""
2142,70,"single-stim",62,63,6859647,"0-0","s07","img/Slide19.png",""
2238,74,"single-stim",63,64,6862287,"0-0","s07","img/Slide12.png",""
1919,74,"single-stim",64,65,6864607,"0-0","s07","img/Slide17.png",""
1223,70,"single-stim",65,66,6866231,"0-0","s07","img/Slide13.png",""
1373,70,"single-stim",66,67,6868007,"0-0","s07","img/Slide02.png",""
3637,70,"single-stim",67,68,6872046,"0-0","s07","img/Slide12.png",""
1718,70,"single-stim",68,69,6874166,"0-0","s07","img/Slide19.png",""
3870,70,"single-stim",69,70,6878438,"0-0","s07","img/Slide15.png",""
1350,70,"single-stim",70,71,6880190,"0-0","s07","img/Slide29.png",""
1702,70,"single-stim",71,72,6882294,"0-0","s07","img/Slide15.png",""
1407,70,"single-stim",72,73,6884102,"0-0","s07","img/Slide02.png",""
2206,70,"single-stim",73,74,6886710,"0-0","s07","img/Slide08.png",""
1005,70,"single-stim",74,75,6888118,"0-0","s07","img/Slide30.png",""
1038,74,"single-stim",75,76,6889558,"0-0","s07","img/Slide18.png",""
1359,74,"single-stim",76,77,6891318,"0-0","s07","img/Slide20.png",""
2798,70,"single-stim",77,78,6894517,"0-0","s07","img/Slide07.png",""
3070,70,"single-stim",78,79,6897989,"0-0","s07","img/Slide14.png",""
2718,74,"single-stim",79,80,6901109,"0-0","s07","img/Slide24.png",""
3078,74,"single-stim",80,81,6904589,"0-0","s07","img/Slide25.png",""
2446,74,"single-stim",81,82,6907437,"0-0","s07","img/Slide14.png",""
1734,74,"single-stim",82,83,6909573,"0-0","s07","img/Slide23.png",""
1086,70,"single-stim",83,84,6911061,"0-0","s07","img/Slide28.png",""
1070,70,"single-stim",84,85,6912533,"0-0","s07","img/Slide15.png",""
1494,74,"single-stim",85,86,6914429,"0-0","s07","img/Slide24.png",""
950,70,"single-stim",86,87,6915781,"0-0","s07","img/Slide15.png",""
2102,70,"single-stim",87,88,6918285,"0-0","s07","img/Slide03.png",""
1559,70,"single-stim",88,89,6920245,"0-0","s07","img/Slide07.png",""
1078,74,"single-stim",89,90,6921725,"0-0","s07","img/Slide25.png",""
1846,74,"single-stim",90,91,6923973,"0-0","s07","img/Slide25.png",""
1030,74,"single-stim",91,92,6925405,"0-0","s07","img/Slide22.png",""
2502,70,"single-stim",92,93,6928308,"0-0","s07","img/Slide08.png",""
1958,70,"single-stim",93,94,6930668,"0-0","s07","img/Slide04.png",""
1374,70,"single-stim",94,95,6932444,"0-0","s07","img/Slide04.png",""
2990,70,"single-stim",95,96,6935836,"0-0","s07","img/Slide13.png",""
1950,70,"single-stim",96,97,6938188,"0-0","s07","img/Slide03.png",""
3815,70,"single-stim",97,98,6942404,"0-0","s07","img/Slide14.png",""
3599,74,"single-stim",98,99,6946404,"0-0","s07","img/Slide20.png",""
5150,74,"single-stim",99,100,6951956,"0-0","s07","img/Slide28.png",""
1374,70,"single-stim",100,101,6953731,"0-0","s07","img/Slide10.png",""
1430,70,"single-stim",101,102,6955563,"0-0","s07","img/Slide07.png",""
2358,74,"single-stim",102,103,6958323,"0-0","s07","img/Slide18.png",""
4958,70,"single-stim",103,104,6963683,"0-0","s07","img/Slide20.png",""
1735,70,"single-stim",104,105,6965819,"0-0","s07","img/Slide30.png",""
1367,70,"single-stim",105,106,6967587,"0-0","s07","img/Slide03.png",""
4670,70,"single-stim",106,107,6972659,"0-0","s07","img/Slide18.png",""
2358,74,"single-stim",107,108,6975419,"0-0","s07","img/Slide25.png",""
4429,70,"single-stim",108,109,6980251,"0-0","s07","img/Slide17.png",""
1766,70,"single-stim",109,110,6982418,"0-0","s07","img/Slide04.png",""
1630,74,"single-stim",110,111,6984450,"0-0","s07","img/Slide25.png",""
5366,70,"single-stim",111,112,6990218,"0-0","s07","img/Slide12.png",""
2926,70,"single-stim",112,113,6993546,"0-0","s07","img/Slide12.png",""
1470,74,"single-stim",113,114,6995418,"0-0","s07","img/Slide22.png",""
1519,74,"single-stim",114,115,6997338,"0-0","s07","img/Slide23.png",""
7117,74,"single-stim",115,116,7004858,"0-0","s07","img/Slide19.png",""
5198,70,"single-stim",116,117,7010458,"0-0","s07","img/Slide09.png",""
2998,74,"single-stim",117,118,7013858,"0-0","s07","img/Slide23.png",""
1150,74,"single-stim",118,119,7015409,"0-0","s07","img/Slide22.png",""
3150,70,"single-stim",119,120,7018961,"0-0","s07","img/Slide29.png",""
72987,NA,"survey-text",0,121,7092354,"0-0","s07","","{""Q0"":""I had to instantly give meaning to the relative largeness of the red and blue circles"",""Q1"":""The biggest dots were red"",""Q2"":""No""}"
186212,49,"single-stim",0,122,7279568,"0-0","s07","<p style=""font-size:30px; text-align:center"">Thanks for participating!</p>",""
1767218,32,"text",0,0,1767221,"0-0","s08","",""
6081,70,"single-stim",0,1,1774307,"0-0","s08","img/Slide28.png",""
1637,70,"single-stim",1,2,1776346,"0-0","s08","img/Slide02.png",""
1534,74,"single-stim",2,3,1778282,"0-0","s08","img/Slide25.png",""
1663,74,"single-stim",3,4,1780346,"0-0","s08","img/Slide25.png",""
2446,74,"single-stim",4,5,1783194,"0-0","s08","img/Slide23.png",""
1310,74,"single-stim",5,6,1784906,"0-0","s08","img/Slide18.png",""
1336,74,"single-stim",6,7,1786642,"0-0","s08","img/Slide23.png",""
928,70,"single-stim",7,8,1787970,"0-0","s08","img/Slide28.png",""
1710,70,"single-stim",8,9,1790082,"0-0","s08","img/Slide14.png",""
1237,70,"single-stim",9,10,1791721,"0-0","s08","img/Slide30.png",""
1678,70,"single-stim",10,11,1793801,"0-0","s08","img/Slide27.png",""
2063,70,"single-stim",11,12,1796266,"0-0","s08","img/Slide27.png",""
1518,70,"single-stim",12,13,1798185,"0-0","s08","img/Slide14.png",""
1350,70,"single-stim",13,14,1799937,"0-0","s08","img/Slide05.png",""
1270,70,"single-stim",14,15,1801609,"0-0","s08","img/Slide27.png",""
4246,70,"single-stim",15,16,1806257,"0-0","s08","img/Slide07.png",""
1166,70,"single-stim",16,17,1807825,"0-0","s08","img/Slide03.png",""
854,70,"single-stim",17,18,1809081,"0-0","s08","img/Slide27.png",""
1070,70,"single-stim",18,19,1810553,"0-0","s08","img/Slide08.png",""
1086,70,"single-stim",19,20,1812041,"0-0","s08","img/Slide27.png",""
7366,74,"single-stim",20,21,1819809,"0-0","s08","img/Slide09.png",""
1230,74,"single-stim",21,22,1821441,"0-0","s08","img/Slide09.png",""
1902,70,"single-stim",22,23,1823744,"0-0","s08","img/Slide05.png",""
1182,70,"single-stim",23,24,1825329,"0-0","s08","img/Slide04.png",""
982,74,"single-stim",24,25,1826712,"0-0","s08","img/Slide24.png",""
3190,74,"single-stim",25,26,1830304,"0-0","s08","img/Slide15.png",""
1662,74,"single-stim",26,27,1832368,"0-0","s08","img/Slide07.png",""
1830,70,"single-stim",27,28,1834600,"0-0","s08","img/Slide30.png",""
2327,74,"single-stim",28,29,1837328,"0-0","s08","img/Slide20.png",""
1390,74,"single-stim",29,30,1839120,"0-0","s08","img/Slide12.png",""
4678,74,"single-stim",30,31,1844200,"0-0","s08","img/Slide13.png",""
1310,74,"single-stim",31,32,1845912,"0-0","s08","img/Slide20.png",""
1911,74,"single-stim",32,33,1848224,"0-0","s08","img/Slide12.png",""
1719,74,"single-stim",33,34,1850344,"0-0","s08","img/Slide10.png",""
966,74,"single-stim",34,35,1851712,"0-0","s08","img/Slide13.png",""
926,74,"single-stim",35,36,1853040,"0-0","s08","img/Slide07.png",""
990,74,"single-stim",36,37,1854432,"0-0","s08","img/Slide08.png",""
1030,74,"single-stim",37,38,1855864,"0-0","s08","img/Slide22.png",""
1191,70,"single-stim",38,39,1857455,"0-0","s08","img/Slide04.png",""
1454,74,"single-stim",39,40,1859311,"0-0","s08","img/Slide10.png",""
1030,70,"single-stim",40,41,1860743,"0-0","s08","img/Slide29.png",""
1870,74,"single-stim",41,42,1863015,"0-0","s08","img/Slide24.png",""
2183,74,"single-stim",42,43,1865599,"0-0","s08","img/Slide10.png",""
1054,74,"single-stim",43,44,1867055,"0-0","s08","img/Slide08.png",""
1503,70,"single-stim",44,45,1868959,"0-0","s08","img/Slide30.png",""
927,74,"single-stim",45,46,1870287,"0-0","s08","img/Slide23.png",""
1190,70,"single-stim",46,47,1871879,"0-0","s08","img/Slide02.png",""
1559,74,"single-stim",47,48,1873839,"0-0","s08","img/Slide18.png",""
1414,74,"single-stim",48,49,1875655,"0-0","s08","img/Slide15.png",""
3158,74,"single-stim",49,50,1879215,"0-0","s08","img/Slide09.png",""
775,74,"single-stim",50,51,1880391,"0-0","s08","img/Slide19.png",""
1718,70,"single-stim",51,52,1882511,"0-0","s08","img/Slide05.png",""
1798,74,"single-stim",52,53,1884711,"0-0","s08","img/Slide09.png",""
766,74,"single-stim",53,54,1885878,"0-0","s08","img/Slide25.png",""
1294,70,"single-stim",54,55,1887574,"0-0","s08","img/Slide03.png",""
694,70,"single-stim",55,56,1888670,"0-0","s08","img/Slide04.png",""
614,74,"single-stim",56,57,1889686,"0-0","s08","img/Slide22.png",""
2406,74,"single-stim",57,58,1892494,"0-0","s08","img/Slide08.png",""
710,70,"single-stim",58,59,1893606,"0-0","s08","img/Slide02.png",""
663,74,"single-stim",59,60,1894670,"0-0","s08","img/Slide25.png",""
1118,74,"single-stim",60,61,1896190,"0-0","s08","img/Slide19.png",""
742,74,"single-stim",61,62,1897334,"0-0","s08","img/Slide20.png",""
550,74,"single-stim",62,63,1898286,"0-0","s08","img/Slide22.png",""
758,74,"single-stim",63,64,1899446,"0-0","s08","img/Slide24.png",""
903,74,"single-stim",64,65,1900750,"0-0","s08","img/Slide20.png",""
1317,70,"single-stim",65,66,1902470,"0-0","s08","img/Slide29.png",""
3743,74,"single-stim",66,67,1906614,"0-0","s08","img/Slide15.png",""
917,74,"single-stim",67,68,1907934,"0-0","s08","img/Slide19.png",""
807,70,"single-stim",68,69,1909142,"0-0","s08","img/Slide03.png",""
679,70,"single-stim",69,70,1910222,"0-0","s08","img/Slide04.png",""
679,74,"single-stim",70,71,1911302,"0-0","s08","img/Slide18.png",""
1262,70,"single-stim",71,72,1912966,"0-0","s08","img/Slide28.png",""
2335,74,"single-stim",72,73,1915702,"0-0","s08","img/Slide13.png",""
919,70,"single-stim",73,74,1917021,"0-0","s08","img/Slide04.png",""
2207,74,"single-stim",74,75,1919629,"0-0","s08","img/Slide15.png",""
-1,-1,"single-stim",75,76,1930032,"0-0","s08","img/Slide10.png",""
3685,70,"single-stim",76,77,1934117,"0-0","s08","img/Slide29.png",""
1054,74,"single-stim",77,78,1935573,"0-0","s08","img/Slide18.png",""
-1,-1,"single-stim",78,79,1945976,"0-0","s08","img/Slide13.png",""
2642,70,"single-stim",79,80,1949020,"0-0","s08","img/Slide29.png",""
2038,74,"single-stim",80,81,1951460,"0-0","s08","img/Slide12.png",""
1214,74,"single-stim",81,82,1953076,"0-0","s08","img/Slide07.png",""
1447,74,"single-stim",82,83,1954924,"0-0","s08","img/Slide14.png",""
950,74,"single-stim",83,84,1956276,"0-0","s08","img/Slide18.png",""
686,74,"single-stim",84,85,1957364,"0-0","s08","img/Slide19.png",""
782,74,"single-stim",85,86,1958548,"0-0","s08","img/Slide23.png",""
1318,74,"single-stim",86,87,1960268,"0-0","s08","img/Slide12.png",""
886,74,"single-stim",87,88,1961556,"0-0","s08","img/Slide17.png",""
942,74,"single-stim",88,89,1962900,"0-0","s08","img/Slide14.png",""
735,70,"single-stim",89,90,1964036,"0-0","s08","img/Slide05.png",""
783,74,"single-stim",90,91,1965220,"0-0","s08","img/Slide24.png",""
1431,70,"single-stim",91,92,1967052,"0-0","s08","img/Slide29.png",""
1197,74,"single-stim",92,93,1968652,"0-0","s08","img/Slide17.png",""
823,70,"single-stim",93,94,1969876,"0-0","s08","img/Slide30.png",""
912,70,"single-stim",94,95,1971188,"0-0","s08","img/Slide03.png",""
832,74,"single-stim",95,96,1972420,"0-0","s08","img/Slide17.png",""
1014,74,"single-stim",96,97,1973835,"0-0","s08","img/Slide14.png",""
686,74,"single-stim",97,98,1974924,"0-0","s08","img/Slide22.png",""
2934,74,"single-stim",98,99,1978259,"0-0","s08","img/Slide25.png",""
1078,74,"single-stim",99,100,1979739,"0-0","s08","img/Slide24.png",""
718,74,"single-stim",100,101,1980859,"0-0","s08","img/Slide12.png",""
679,74,"single-stim",101,102,1981940,"0-0","s08","img/Slide13.png",""
1141,74,"single-stim",102,103,1983483,"0-0","s08","img/Slide07.png",""
798,70,"single-stim",103,104,1984683,"0-0","s08","img/Slide05.png",""
1102,74,"single-stim",104,105,1986187,"0-0","s08","img/Slide23.png",""
2207,74,"single-stim",105,106,1988795,"0-0","s08","img/Slide09.png",""
1319,70,"single-stim",106,107,1990515,"0-0","s08","img/Slide28.png",""
837,74,"single-stim",107,108,1991755,"0-0","s08","img/Slide17.png",""
1030,70,"single-stim",108,109,1993187,"0-0","s08","img/Slide28.png",""
3094,74,"single-stim",109,110,1996683,"0-0","s08","img/Slide10.png",""
862,74,"single-stim",110,111,1997947,"0-0","s08","img/Slide20.png",""
743,70,"single-stim",111,112,1999091,"0-0","s08","img/Slide02.png",""
4222,70,"single-stim",112,113,2003715,"0-0","s08","img/Slide30.png",""
854,74,"single-stim",113,114,2004970,"0-0","s08","img/Slide17.png",""
766,74,"single-stim",114,115,2006139,"0-0","s08","img/Slide08.png",""
1039,70,"single-stim",115,116,2007578,"0-0","s08","img/Slide03.png",""
1398,74,"single-stim",116,117,2009378,"0-0","s08","img/Slide15.png",""
1094,70,"single-stim",117,118,2010874,"0-0","s08","img/Slide02.png",""
1814,74,"single-stim",118,119,2013090,"0-0","s08","img/Slide19.png",""
854,74,"single-stim",119,120,2014346,"0-0","s08","img/Slide22.png",""
117357,NA,"survey-text",0,121,2132108,"0-0","s08","","{""Q0"":""Only in the sense that the sentence could be interpreted in different ways."",""Q1"":""I said that the sentence matched the picture when there were at least two red dots that were bigger than all the other blue ones."",""Q2"":""""}"
32551,49,"single-stim",0,122,2165661,"0-0","s08","<p style=""font-size:30px; text-align:center"">Thanks for participating!</p>",""
780516,32,"text",0,0,780518,"0-0","s09","",""
1824,70,"single-stim",0,1,783348,"0-0","s09","img/Slide05.png",""
1301,74,"single-stim",1,2,785052,"0-0","s09","img/Slide25.png",""
2230,70,"single-stim",2,3,787683,"0-0","s09","img/Slide09.png",""
1070,70,"single-stim",3,4,789155,"0-0","s09","img/Slide10.png",""
1230,74,"single-stim",4,5,790787,"0-0","s09","img/Slide22.png",""
1838,74,"single-stim",5,6,793027,"0-0","s09","img/Slide18.png",""
1358,70,"single-stim",6,7,794787,"0-0","s09","img/Slide15.png",""
1767,70,"single-stim",7,8,796955,"0-0","s09","img/Slide02.png",""
542,70,"single-stim",8,9,797899,"0-0","s09","img/Slide02.png",""
1534,74,"single-stim",9,10,799835,"0-0","s09","img/Slide07.png",""
942,74,"single-stim",10,11,801179,"0-0","s09","img/Slide17.png",""
655,70,"single-stim",11,12,802235,"0-0","s09","img/Slide02.png",""
495,70,"single-stim",12,13,803131,"0-0","s09","img/Slide07.png",""
998,74,"single-stim",13,14,804531,"0-0","s09","img/Slide17.png",""
726,70,"single-stim",14,15,805659,"0-0","s09","img/Slide04.png",""
1286,70,"single-stim",15,16,807347,"0-0","s09","img/Slide28.png",""
1350,74,"single-stim",16,17,809099,"0-0","s09","img/Slide22.png",""
1118,74,"single-stim",17,18,810618,"0-0","s09","img/Slide23.png",""
863,70,"single-stim",18,19,811883,"0-0","s09","img/Slide27.png",""
871,70,"single-stim",19,20,813155,"0-0","s09","img/Slide14.png",""
926,70,"single-stim",20,21,814483,"0-0","s09","img/Slide13.png",""
1342,74,"single-stim",21,22,816226,"0-0","s09","img/Slide17.png",""
774,70,"single-stim",22,23,817402,"0-0","s09","img/Slide12.png",""
823,70,"single-stim",23,24,818626,"0-0","s09","img/Slide05.png",""
743,74,"single-stim",24,25,819770,"0-0","s09","img/Slide17.png",""
742,74,"single-stim",25,26,820914,"0-0","s09","img/Slide18.png",""
718,74,"single-stim",26,27,822034,"0-0","s09","img/Slide22.png",""
1198,74,"single-stim",27,28,823634,"0-0","s09","img/Slide19.png",""
662,70,"single-stim",28,29,824698,"0-0","s09","img/Slide09.png",""
526,74,"single-stim",29,30,825626,"0-0","s09","img/Slide19.png",""
502,70,"single-stim",30,31,826530,"0-0","s09","img/Slide02.png",""
638,74,"single-stim",31,32,827570,"0-0","s09","img/Slide20.png",""
846,70,"single-stim",32,33,828818,"0-0","s09","img/Slide03.png",""
870,70,"single-stim",33,34,830090,"0-0","s09","img/Slide05.png",""
1214,70,"single-stim",34,35,831706,"0-0","s09","img/Slide28.png",""
791,70,"single-stim",35,36,832898,"0-0","s09","img/Slide30.png",""
750,74,"single-stim",36,37,834050,"0-0","s09","img/Slide13.png",""
590,70,"single-stim",37,38,835042,"0-0","s09","img/Slide17.png",""
638,74,"single-stim",38,39,836082,"0-0","s09","img/Slide22.png",""
630,70,"single-stim",39,40,837114,"0-0","s09","img/Slide14.png",""
614,70,"single-stim",40,41,838130,"0-0","s09","img/Slide12.png",""
487,70,"single-stim",41,42,839018,"0-0","s09","img/Slide07.png",""
1119,70,"single-stim",42,43,840538,"0-0","s09","img/Slide24.png",""
1070,74,"single-stim",43,44,842010,"0-0","s09","img/Slide15.png",""
647,70,"single-stim",44,45,843058,"0-0","s09","img/Slide14.png",""
1022,74,"single-stim",45,46,844481,"0-0","s09","img/Slide18.png",""
718,70,"single-stim",46,47,845602,"0-0","s09","img/Slide28.png",""
903,70,"single-stim",47,48,846905,"0-0","s09","img/Slide14.png",""
950,70,"single-stim",48,49,848257,"0-0","s09","img/Slide30.png",""
654,70,"single-stim",49,50,849313,"0-0","s09","img/Slide27.png",""
774,70,"single-stim",50,51,850489,"0-0","s09","img/Slide03.png",""
854,70,"single-stim",51,52,851745,"0-0","s09","img/Slide28.png",""
662,70,"single-stim",52,53,852809,"0-0","s09","img/Slide13.png",""
718,70,"single-stim",53,54,853929,"0-0","s09","img/Slide08.png",""
734,70,"single-stim",54,55,855065,"0-0","s09","img/Slide15.png",""
974,74,"single-stim",55,56,856441,"0-0","s09","img/Slide20.png",""
806,74,"single-stim",56,57,857649,"0-0","s09","img/Slide20.png",""
958,70,"single-stim",57,58,859009,"0-0","s09","img/Slide07.png",""
839,70,"single-stim",58,59,860249,"0-0","s09","img/Slide30.png",""
518,70,"single-stim",59,60,861169,"0-0","s09","img/Slide05.png",""
1006,74,"single-stim",60,61,862577,"0-0","s09","img/Slide25.png",""
766,70,"single-stim",61,62,863745,"0-0","s09","img/Slide29.png",""
703,70,"single-stim",62,63,864849,"0-0","s09","img/Slide27.png",""
758,74,"single-stim",63,64,866009,"0-0","s09","img/Slide18.png",""
679,70,"single-stim",64,65,867089,"0-0","s09","img/Slide07.png",""
1165,70,"single-stim",65,66,868657,"0-0","s09","img/Slide25.png",""
966,70,"single-stim",66,67,870025,"0-0","s09","img/Slide03.png",""
999,70,"single-stim",67,68,871425,"0-0","s09","img/Slide24.png",""
664,70,"single-stim",68,69,872489,"0-0","s09","img/Slide27.png",""
1646,70,"single-stim",69,70,874537,"0-0","s09","img/Slide03.png",""
774,70,"single-stim",70,71,875713,"0-0","s09","img/Slide08.png",""
711,70,"single-stim",71,72,876824,"0-0","s09","img/Slide30.png",""
742,70,"single-stim",72,73,877968,"0-0","s09","img/Slide28.png",""
806,74,"single-stim",73,74,879176,"0-0","s09","img/Slide20.png",""
678,70,"single-stim",74,75,880256,"0-0","s09","img/Slide14.png",""
614,70,"single-stim",75,76,881272,"0-0","s09","img/Slide29.png",""
1150,70,"single-stim",76,77,882824,"0-0","s09","img/Slide04.png",""
766,70,"single-stim",77,78,883992,"0-0","s09","img/Slide27.png",""
910,74,"single-stim",78,79,885304,"0-0","s09","img/Slide19.png",""
502,70,"single-stim",79,80,886208,"0-0","s09","img/Slide12.png",""
894,70,"single-stim",80,81,887504,"0-0","s09","img/Slide29.png",""
814,70,"single-stim",81,82,888720,"0-0","s09","img/Slide12.png",""
1022,70,"single-stim",82,83,890144,"0-0","s09","img/Slide15.png",""
718,70,"single-stim",83,84,891264,"0-0","s09","img/Slide03.png",""
1150,74,"single-stim",84,85,892816,"0-0","s09","img/Slide23.png",""
726,70,"single-stim",85,86,893944,"0-0","s09","img/Slide08.png",""
718,70,"single-stim",86,87,895064,"0-0","s09","img/Slide10.png",""
702,70,"single-stim",87,88,896168,"0-0","s09","img/Slide04.png",""
783,70,"single-stim",88,89,897352,"0-0","s09","img/Slide15.png",""
542,70,"single-stim",89,90,898296,"0-0","s09","img/Slide08.png",""
734,74,"single-stim",90,91,899432,"0-0","s09","img/Slide23.png",""
895,70,"single-stim",91,92,900728,"0-0","s09","img/Slide29.png",""
590,70,"single-stim",92,93,901720,"0-0","s09","img/Slide30.png",""
535,70,"single-stim",93,94,902656,"0-0","s09","img/Slide02.png",""
726,74,"single-stim",94,95,903784,"0-0","s09","img/Slide25.png",""
550,70,"single-stim",95,96,904736,"0-0","s09","img/Slide04.png",""
654,70,"single-stim",96,97,905791,"0-0","s09","img/Slide09.png",""
558,70,"single-stim",97,98,906751,"0-0","s09","img/Slide09.png",""
718,70,"single-stim",98,99,907872,"0-0","s09","img/Slide13.png",""
822,70,"single-stim",99,100,909095,"0-0","s09","img/Slide13.png",""
558,74,"single-stim",100,101,910055,"0-0","s09","img/Slide24.png",""
662,74,"single-stim",101,102,911119,"0-0","s09","img/Slide23.png",""
550,74,"single-stim",102,103,912071,"0-0","s09","img/Slide23.png",""
654,70,"single-stim",103,104,913127,"0-0","s09","img/Slide09.png",""
654,70,"single-stim",104,105,914183,"0-0","s09","img/Slide08.png",""
638,70,"single-stim",105,106,915223,"0-0","s09","img/Slide19.png",""
1598,74,"single-stim",106,107,917223,"0-0","s09","img/Slide18.png",""
902,70,"single-stim",107,108,918527,"0-0","s09","img/Slide10.png",""
871,74,"single-stim",108,109,919799,"0-0","s09","img/Slide22.png",""
831,74,"single-stim",109,110,921031,"0-0","s09","img/Slide25.png",""
638,70,"single-stim",110,111,922071,"0-0","s09","img/Slide05.png",""
742,70,"single-stim",111,112,923215,"0-0","s09","img/Slide04.png",""
702,74,"single-stim",112,113,924319,"0-0","s09","img/Slide24.png",""
1670,74,"single-stim",113,114,926391,"0-0","s09","img/Slide20.png",""
1350,70,"single-stim",114,115,928143,"0-0","s09","img/Slide29.png",""
686,70,"single-stim",115,116,929231,"0-0","s09","img/Slide10.png",""
1406,74,"single-stim",116,117,931039,"0-0","s09","img/Slide19.png",""
879,70,"single-stim",117,118,932319,"0-0","s09","img/Slide10.png",""
646,74,"single-stim",118,119,933367,"0-0","s09","img/Slide24.png",""
535,70,"single-stim",119,120,934303,"0-0","s09","img/Slide12.png",""
46186,NA,"survey-text",0,121,980894,"0-0","s09","","{""Q0"":""Yes because it strained my eyes and I had some trouble focusing sometimes, but the content was not challenging"",""Q1"":""I was usually quicker to respond when it did match rather than when it didn't match"",""Q2"":""""}"
24475,49,"single-stim",0,122,1006372,"0-0","s09","<p style=""font-size:30px; text-align:center"">Thanks for participating!</p>",""
2493631,32,"text",0,0,2493634,"0-0","s10","",""
1538,70,"single-stim",0,1,2496176,"0-0","s10","img/Slide30.png",""
2141,74,"single-stim",1,2,2498720,"0-0","s10","img/Slide18.png",""
1061,70,"single-stim",2,3,2500183,"0-0","s10","img/Slide27.png",""
1766,74,"single-stim",3,4,2502351,"0-0","s10","img/Slide25.png",""
1254,70,"single-stim",4,5,2504007,"0-0","s10","img/Slide15.png",""
1263,74,"single-stim",5,6,2505671,"0-0","s10","img/Slide18.png",""
1646,74,"single-stim",6,7,2507719,"0-0","s10","img/Slide09.png",""
943,70,"single-stim",7,8,2509063,"0-0","s10","img/Slide15.png",""
1062,74,"single-stim",8,9,2510527,"0-0","s10","img/Slide25.png",""
1886,70,"single-stim",9,10,2512815,"0-0","s10","img/Slide03.png",""
1934,70,"single-stim",10,11,2515151,"0-0","s10","img/Slide09.png",""
678,70,"single-stim",11,12,2516231,"0-0","s10","img/Slide27.png",""
1078,70,"single-stim",12,13,2517711,"0-0","s10","img/Slide07.png",""
766,70,"single-stim",13,14,2518879,"0-0","s10","img/Slide04.png",""
942,70,"single-stim",14,15,2520223,"0-0","s10","img/Slide20.png",""
1319,74,"single-stim",15,16,2521943,"0-0","s10","img/Slide22.png",""
782,70,"single-stim",16,17,2523127,"0-0","s10","img/Slide03.png",""
1007,70,"single-stim",17,18,2524535,"0-0","s10","img/Slide12.png",""
1798,70,"single-stim",18,19,2526735,"0-0","s10","img/Slide18.png",""
2038,70,"single-stim",19,20,2529175,"0-0","s10","img/Slide08.png",""
582,74,"single-stim",20,21,2530159,"0-0","s10","img/Slide23.png",""
749,70,"single-stim",21,22,2531311,"0-0","s10","img/Slide05.png",""
709,70,"single-stim",22,23,2532423,"0-0","s10","img/Slide08.png",""
486,74,"single-stim",23,24,2533310,"0-0","s10","img/Slide20.png",""
918,74,"single-stim",24,25,2534631,"0-0","s10","img/Slide24.png",""
1071,74,"single-stim",25,26,2536102,"0-0","s10","img/Slide24.png",""
1086,70,"single-stim",26,27,2537590,"0-0","s10","img/Slide14.png",""
718,70,"single-stim",27,28,2538710,"0-0","s10","img/Slide02.png",""
534,74,"single-stim",28,29,2539646,"0-0","s10","img/Slide22.png",""
598,74,"single-stim",29,30,2540646,"0-0","s10","img/Slide22.png",""
518,74,"single-stim",30,31,2541566,"0-0","s10","img/Slide24.png",""
1207,74,"single-stim",31,32,2543174,"0-0","s10","img/Slide18.png",""
686,74,"single-stim",32,33,2544262,"0-0","s10","img/Slide14.png",""
766,70,"single-stim",33,34,2545430,"0-0","s10","img/Slide04.png",""
1614,74,"single-stim",34,35,2547446,"0-0","s10","img/Slide22.png",""
678,70,"single-stim",35,36,2548526,"0-0","s10","img/Slide15.png",""
814,74,"single-stim",36,37,2549742,"0-0","s10","img/Slide17.png",""
1534,70,"single-stim",37,38,2551678,"0-0","s10","img/Slide09.png",""
1246,70,"single-stim",38,39,2553326,"0-0","s10","img/Slide08.png",""
1782,74,"single-stim",39,40,2555510,"0-0","s10","img/Slide24.png",""
1575,70,"single-stim",40,41,2557486,"0-0","s10","img/Slide03.png",""
1135,70,"single-stim",41,42,2559022,"0-0","s10","img/Slide14.png",""
631,70,"single-stim",42,43,2560054,"0-0","s10","img/Slide04.png",""
678,70,"single-stim",43,44,2561134,"0-0","s10","img/Slide27.png",""
885,70,"single-stim",44,45,2562422,"0-0","s10","img/Slide13.png",""
958,70,"single-stim",45,46,2563782,"0-0","s10","img/Slide14.png",""
726,70,"single-stim",46,47,2564909,"0-0","s10","img/Slide18.png",""
846,74,"single-stim",47,48,2566157,"0-0","s10","img/Slide17.png",""
710,74,"single-stim",48,49,2567269,"0-0","s10","img/Slide19.png",""
678,70,"single-stim",49,50,2568349,"0-0","s10","img/Slide09.png",""
662,70,"single-stim",50,51,2569413,"0-0","s10","img/Slide12.png",""
662,70,"single-stim",51,52,2570477,"0-0","s10","img/Slide29.png",""
678,70,"single-stim",52,53,2571557,"0-0","s10","img/Slide08.png",""
870,70,"single-stim",53,54,2572829,"0-0","s10","img/Slide07.png",""
566,70,"single-stim",54,55,2573797,"0-0","s10","img/Slide10.png",""
454,70,"single-stim",55,56,2574653,"0-0","s10","img/Slide29.png",""
638,70,"single-stim",56,57,2575693,"0-0","s10","img/Slide28.png",""
542,70,"single-stim",57,58,2576637,"0-0","s10","img/Slide28.png",""
1846,70,"single-stim",58,59,2578885,"0-0","s10","img/Slide13.png",""
774,74,"single-stim",59,60,2580061,"0-0","s10","img/Slide25.png",""
470,70,"single-stim",60,61,2580933,"0-0","s10","img/Slide27.png",""
630,70,"single-stim",61,62,2581965,"0-0","s10","img/Slide10.png",""
566,70,"single-stim",62,63,2582933,"0-0","s10","img/Slide08.png",""
454,70,"single-stim",63,64,2583789,"0-0","s10","img/Slide05.png",""
1070,74,"single-stim",64,65,2585261,"0-0","s10","img/Slide17.png",""
813,74,"single-stim",65,66,2586477,"0-0","s10","img/Slide20.png",""
614,70,"single-stim",66,67,2587493,"0-0","s10","img/Slide29.png",""
1046,70,"single-stim",67,68,2588941,"0-0","s10","img/Slide28.png",""
718,70,"single-stim",68,69,2590061,"0-0","s10","img/Slide10.png",""
648,74,"single-stim",69,70,2591109,"0-0","s10","img/Slide22.png",""
1150,70,"single-stim",70,71,2592661,"0-0","s10","img/Slide27.png",""
862,70,"single-stim",71,72,2593925,"0-0","s10","img/Slide14.png",""
990,70,"single-stim",72,73,2595317,"0-0","s10","img/Slide07.png",""
878,70,"single-stim",73,74,2596596,"0-0","s10","img/Slide04.png",""
654,74,"single-stim",74,75,2597652,"0-0","s10","img/Slide20.png",""
526,74,"single-stim",75,76,2598580,"0-0","s10","img/Slide17.png",""
1414,70,"single-stim",76,77,2600396,"0-0","s10","img/Slide10.png",""
590,74,"single-stim",77,78,2601388,"0-0","s10","img/Slide23.png",""
558,74,"single-stim",78,79,2602348,"0-0","s10","img/Slide23.png",""
622,74,"single-stim",79,80,2603372,"0-0","s10","img/Slide19.png",""
534,74,"single-stim",80,81,2604308,"0-0","s10","img/Slide20.png",""
566,70,"single-stim",81,82,2605276,"0-0","s10","img/Slide02.png",""
918,70,"single-stim",82,83,2606596,"0-0","s10","img/Slide13.png",""
878,74,"single-stim",83,84,2607876,"0-0","s10","img/Slide19.png",""
1478,70,"single-stim",84,85,2609756,"0-0","s10","img/Slide10.png",""
815,70,"single-stim",85,86,2610972,"0-0","s10","img/Slide05.png",""
926,70,"single-stim",86,87,2612300,"0-0","s10","img/Slide07.png",""
559,70,"single-stim",87,88,2613260,"0-0","s10","img/Slide30.png",""
806,74,"single-stim",88,89,2614468,"0-0","s10","img/Slide19.png",""
534,74,"single-stim",89,90,2615404,"0-0","s10","img/Slide17.png",""
727,70,"single-stim",90,91,2616532,"0-0","s10","img/Slide02.png",""
575,70,"single-stim",91,92,2617508,"0-0","s10","img/Slide29.png",""
495,70,"single-stim",92,93,2618404,"0-0","s10","img/Slide09.png",""
472,70,"single-stim",93,94,2619276,"0-0","s10","img/Slide30.png",""
407,70,"single-stim",94,95,2620084,"0-0","s10","img/Slide30.png",""
775,70,"single-stim",95,96,2621260,"0-0","s10","img/Slide15.png",""
422,70,"single-stim",96,97,2622084,"0-0","s10","img/Slide29.png",""
567,74,"single-stim",97,98,2623052,"0-0","s10","img/Slide25.png",""
415,74,"single-stim",98,99,2623868,"0-0","s10","img/Slide24.png",""
694,70,"single-stim",99,100,2624964,"0-0","s10","img/Slide03.png",""
671,70,"single-stim",100,101,2626036,"0-0","s10","img/Slide12.png",""
550,74,"single-stim",101,102,2626987,"0-0","s10","img/Slide30.png",""
686,74,"single-stim",102,103,2628075,"0-0","s10","img/Slide25.png",""
574,70,"single-stim",103,104,2629051,"0-0","s10","img/Slide13.png",""
527,70,"single-stim",104,105,2629979,"0-0","s10","img/Slide23.png",""
54,74,"single-stim",105,106,2630435,"0-0","s10","img/Slide23.png",""
1134,70,"single-stim",106,107,2631971,"0-0","s10","img/Slide02.png",""
2919,70,"single-stim",107,108,2635291,"0-0","s10","img/Slide12.png",""
566,70,"single-stim",108,109,2636259,"0-0","s10","img/Slide15.png",""
414,70,"single-stim",109,110,2637075,"0-0","s10","img/Slide07.png",""
438,70,"single-stim",110,111,2637915,"0-0","s10","img/Slide13.png",""
407,70,"single-stim",111,112,2638723,"0-0","s10","img/Slide28.png",""
678,74,"single-stim",112,113,2639803,"0-0","s10","img/Slide19.png",""
566,70,"single-stim",113,114,2640771,"0-0","s10","img/Slide12.png",""
2839,70,"single-stim",114,115,2644011,"0-0","s10","img/Slide05.png",""
598,70,"single-stim",115,116,2645011,"0-0","s10","img/Slide04.png",""
591,70,"single-stim",116,117,2646003,"0-0","s10","img/Slide02.png",""
543,70,"single-stim",117,118,2646947,"0-0","s10","img/Slide05.png",""
535,70,"single-stim",118,119,2647883,"0-0","s10","img/Slide28.png",""
1158,70,"single-stim",119,120,2649443,"0-0","s10","img/Slide03.png",""
35497,NA,"survey-text",0,121,2685345,"0-0","s10","","{""Q0"":""a little bit because i was trying to go as fast as i could so i made a few mistakes along the way"",""Q1"":""when the BIGGEST dot was red/blue"",""Q2"":""""}"
28405,49,"single-stim",0,122,2714753,"0-0","s10","<p style=""font-size:30px; text-align:center"">Thanks for participating!</p>",""
5485771,70,"text",0,0,5485774,"0-0","s11","",""
4968,70,"single-stim",0,1,5491748,"0-0","s11","img/Slide14.png",""
3285,70,"single-stim",1,2,5495436,"0-0","s11","img/Slide07.png",""
4062,70,"single-stim",2,3,5499899,"0-0","s11","img/Slide10.png",""
1374,70,"single-stim",3,4,5501675,"0-0","s11","img/Slide02.png",""
4774,74,"single-stim",4,5,5506851,"0-0","s11","img/Slide30.png",""
2518,74,"single-stim",5,6,5509771,"0-0","s11","img/Slide25.png",""
2783,74,"single-stim",6,7,5512955,"0-0","s11","img/Slide15.png",""
983,70,"single-stim",7,8,5514339,"0-0","s11","img/Slide04.png",""
1469,74,"single-stim",8,9,5516211,"0-0","s11","img/Slide20.png",""
2678,74,"single-stim",9,10,5519290,"0-0","s11","img/Slide20.png",""
2406,74,"single-stim",10,11,5522099,"0-0","s11","img/Slide20.png",""
1894,74,"single-stim",11,12,5524394,"0-0","s11","img/Slide27.png",""
1111,70,"single-stim",12,13,5525906,"0-0","s11","img/Slide05.png",""
974,74,"single-stim",13,14,5527282,"0-0","s11","img/Slide22.png",""
1262,74,"single-stim",14,15,5528946,"0-0","s11","img/Slide27.png",""
3398,74,"single-stim",15,16,5532746,"0-0","s11","img/Slide07.png",""
2063,74,"single-stim",16,17,5535210,"0-0","s11","img/Slide28.png",""
1638,70,"single-stim",17,18,5537250,"0-0","s11","img/Slide03.png",""
1742,70,"single-stim",18,19,5539394,"0-0","s11","img/Slide03.png",""
2294,74,"single-stim",19,20,5542090,"0-0","s11","img/Slide08.png",""
2334,74,"single-stim",20,21,5544826,"0-0","s11","img/Slide19.png",""
3237,74,"single-stim",21,22,5548466,"0-0","s11","img/Slide28.png",""
2094,74,"single-stim",22,23,5550961,"0-0","s11","img/Slide29.png",""
1582,74,"single-stim",23,24,5552945,"0-0","s11","img/Slide18.png",""
3318,74,"single-stim",24,25,5556665,"0-0","s11","img/Slide10.png",""
1070,74,"single-stim",25,26,5558137,"0-0","s11","img/Slide07.png",""
2847,74,"single-stim",26,27,5561385,"0-0","s11","img/Slide20.png",""
1094,74,"single-stim",27,28,5562881,"0-0","s11","img/Slide29.png",""
806,74,"single-stim",28,29,5564089,"0-0","s11","img/Slide25.png",""
1766,74,"single-stim",29,30,5566257,"0-0","s11","img/Slide08.png",""
1366,74,"single-stim",30,31,5568025,"0-0","s11","img/Slide19.png",""
1590,74,"single-stim",31,32,5570017,"0-0","s11","img/Slide19.png",""
2295,74,"single-stim",32,33,5572713,"0-0","s11","img/Slide13.png",""
2102,74,"single-stim",33,34,5575217,"0-0","s11","img/Slide19.png",""
1366,74,"single-stim",34,35,5576984,"0-0","s11","img/Slide23.png",""
2854,74,"single-stim",35,36,5580241,"0-0","s11","img/Slide14.png",""
1710,74,"single-stim",36,37,5582352,"0-0","s11","img/Slide24.png",""
2510,74,"single-stim",37,38,5585264,"0-0","s11","img/Slide17.png",""
1998,74,"single-stim",38,39,5587664,"0-0","s11","img/Slide17.png",""
1406,70,"single-stim",39,40,5589472,"0-0","s11","img/Slide05.png",""
1326,74,"single-stim",40,41,5591200,"0-0","s11","img/Slide18.png",""
2447,74,"single-stim",41,42,5594048,"0-0","s11","img/Slide27.png",""
998,70,"single-stim",42,43,5595448,"0-0","s11","img/Slide02.png",""
2262,74,"single-stim",43,44,5598112,"0-0","s11","img/Slide28.png",""
1454,74,"single-stim",44,45,5599968,"0-0","s11","img/Slide12.png",""
1230,70,"single-stim",45,46,5601600,"0-0","s11","img/Slide04.png",""
1662,74,"single-stim",46,47,5603664,"0-0","s11","img/Slide20.png",""
2950,74,"single-stim",47,48,5607016,"0-0","s11","img/Slide09.png",""
1014,70,"single-stim",48,49,5608432,"0-0","s11","img/Slide05.png",""
2046,70,"single-stim",49,50,5610879,"0-0","s11","img/Slide03.png",""
1231,74,"single-stim",50,51,5612511,"0-0","s11","img/Slide13.png",""
1110,74,"single-stim",51,52,5614023,"0-0","s11","img/Slide12.png",""
3278,74,"single-stim",52,53,5617703,"0-0","s11","img/Slide09.png",""
2838,74,"single-stim",53,54,5620943,"0-0","s11","img/Slide10.png",""
1022,70,"single-stim",54,55,5622367,"0-0","s11","img/Slide04.png",""
1335,74,"single-stim",55,56,5624103,"0-0","s11","img/Slide29.png",""
1151,74,"single-stim",56,57,5625655,"0-0","s11","img/Slide08.png",""
1038,74,"single-stim",57,58,5627095,"0-0","s11","img/Slide17.png",""
2670,74,"single-stim",58,59,5630167,"0-0","s11","img/Slide25.png",""
1254,74,"single-stim",59,60,5631823,"0-0","s11","img/Slide22.png",""
1031,74,"single-stim",60,61,5633255,"0-0","s11","img/Slide18.png",""
1086,74,"single-stim",61,62,5634743,"0-0","s11","img/Slide27.png",""
2782,74,"single-stim",62,63,5637927,"0-0","s11","img/Slide29.png",""
1286,74,"single-stim",63,64,5639615,"0-0","s11","img/Slide19.png",""
1310,70,"single-stim",64,65,5641327,"0-0","s11","img/Slide03.png",""
797,74,"single-stim",65,66,5642527,"0-0","s11","img/Slide12.png",""
1406,74,"single-stim",66,67,5644334,"0-0","s11","img/Slide23.png",""
1334,74,"single-stim",67,68,5646070,"0-0","s11","img/Slide24.png",""
1182,74,"single-stim",68,69,5647654,"0-0","s11","img/Slide25.png",""
1886,74,"single-stim",69,70,5649942,"0-0","s11","img/Slide25.png",""
1046,74,"single-stim",70,71,5651390,"0-0","s11","img/Slide14.png",""
974,74,"single-stim",71,72,5652766,"0-0","s11","img/Slide30.png",""
1590,74,"single-stim",72,73,5654758,"0-0","s11","img/Slide09.png",""
1031,70,"single-stim",73,74,5656190,"0-0","s11","img/Slide04.png",""
918,74,"single-stim",74,75,5657510,"0-0","s11","img/Slide15.png",""
990,70,"single-stim",75,76,5658902,"0-0","s11","img/Slide05.png",""
751,74,"single-stim",76,77,5660054,"0-0","s11","img/Slide17.png",""
742,74,"single-stim",77,78,5661198,"0-0","s11","img/Slide24.png",""
726,74,"single-stim",78,79,5662326,"0-0","s11","img/Slide22.png",""
1278,74,"single-stim",79,80,5664006,"0-0","s11","img/Slide12.png",""
1598,74,"single-stim",80,81,5666006,"0-0","s11","img/Slide15.png",""
622,74,"single-stim",81,82,5667030,"0-0","s11","img/Slide14.png",""
678,74,"single-stim",82,83,5668110,"0-0","s11","img/Slide13.png",""
1238,74,"single-stim",83,84,5669750,"0-0","s11","img/Slide07.png",""
766,74,"single-stim",84,85,5670918,"0-0","s11","img/Slide14.png",""
1358,70,"single-stim",85,86,5672678,"0-0","s11","img/Slide02.png",""
951,74,"single-stim",86,87,5674030,"0-0","s11","img/Slide30.png",""
894,74,"single-stim",87,88,5675325,"0-0","s11","img/Slide09.png",""
814,70,"single-stim",88,89,5676541,"0-0","s11","img/Slide04.png",""
854,74,"single-stim",89,90,5677797,"0-0","s11","img/Slide28.png",""
1815,74,"single-stim",90,91,5680013,"0-0","s11","img/Slide24.png",""
654,74,"single-stim",91,92,5681069,"0-0","s11","img/Slide22.png",""
622,70,"single-stim",92,93,5682093,"0-0","s11","img/Slide02.png",""
726,74,"single-stim",93,94,5683221,"0-0","s11","img/Slide24.png",""
782,74,"single-stim",94,95,5684405,"0-0","s11","img/Slide18.png",""
1206,74,"single-stim",95,96,5686013,"0-0","s11","img/Slide23.png",""
886,74,"single-stim",96,97,5687301,"0-0","s11","img/Slide28.png",""
734,74,"single-stim",97,98,5688437,"0-0","s11","img/Slide15.png",""
967,74,"single-stim",98,99,5689805,"0-0","s11","img/Slide29.png",""
846,70,"single-stim",99,100,5691053,"0-0","s11","img/Slide02.png",""
1294,74,"single-stim",100,101,5692749,"0-0","s11","img/Slide07.png",""
1006,74,"single-stim",101,102,5694157,"0-0","s11","img/Slide17.png",""
1583,74,"single-stim",102,103,5696141,"0-0","s11","img/Slide13.png",""
1391,70,"single-stim",103,104,5697933,"0-0","s11","img/Slide03.png",""
782,74,"single-stim",104,105,5699117,"0-0","s11","img/Slide27.png",""
942,74,"single-stim",105,106,5700460,"0-0","s11","img/Slide18.png",""
1038,74,"single-stim",106,107,5701900,"0-0","s11","img/Slide08.png",""
902,70,"single-stim",107,108,5703205,"0-0","s11","img/Slide05.png",""
710,74,"single-stim",108,109,5704316,"0-0","s11","img/Slide23.png",""
782,74,"single-stim",109,110,5705500,"0-0","s11","img/Slide22.png",""
1054,74,"single-stim",110,111,5706956,"0-0","s11","img/Slide13.png",""
2198,74,"single-stim",111,112,5709556,"0-0","s11","img/Slide10.png",""
926,74,"single-stim",112,113,5710884,"0-0","s11","img/Slide30.png",""
983,74,"single-stim",113,114,5712268,"0-0","s11","img/Slide23.png",""
670,74,"single-stim",114,115,5713340,"0-0","s11","img/Slide15.png",""
775,74,"single-stim",115,116,5714516,"0-0","s11","img/Slide12.png",""
846,74,"single-stim",116,117,5715764,"0-0","s11","img/Slide10.png",""
846,74,"single-stim",117,118,5717012,"0-0","s11","img/Slide08.png",""
2190,74,"single-stim",118,119,5719604,"0-0","s11","img/Slide09.png",""
838,74,"single-stim",119,120,5720844,"0-0","s11","img/Slide30.png",""
93377,NA,"survey-text",0,121,5814626,"0-0","s11","","{""Q0"":""Initially yes, trying to figure out how to define \""biggest.\"" After I decided biggest meant all of the red dots were bigger than blue it became easier."",""Q1"":""When all of the red dots were larger than all of the blue dots."",""Q2"":""""}"
16155,49,"single-stim",0,122,5831784,"0-0","s11","<p style=""font-size:30px; text-align:center"">Thanks for participating!</p>",""
5515514,74,"text",0,0,5515517,"0-0","s12","",""
6513,74,"single-stim",0,1,5523034,"0-0","s12","img/Slide19.png",""
2892,74,"single-stim",1,2,5526330,"0-0","s12","img/Slide18.png",""
1982,74,"single-stim",2,3,5528714,"0-0","s12","img/Slide22.png",""
1798,74,"single-stim",3,4,5530913,"0-0","s12","img/Slide25.png",""
1582,70,"single-stim",4,5,5532898,"0-0","s12","img/Slide02.png",""
2006,74,"single-stim",5,6,5535305,"0-0","s12","img/Slide17.png",""
1638,70,"single-stim",6,7,5537345,"0-0","s12","img/Slide02.png",""
2846,70,"single-stim",7,8,5540593,"0-0","s12","img/Slide29.png",""
1390,70,"single-stim",8,9,5542385,"0-0","s12","img/Slide05.png",""
3742,70,"single-stim",9,10,5546529,"0-0","s12","img/Slide27.png",""
1254,70,"single-stim",10,11,5548185,"0-0","s12","img/Slide12.png",""
1895,70,"single-stim",11,12,5550481,"0-0","s12","img/Slide30.png",""
1566,74,"single-stim",12,13,5552449,"0-0","s12","img/Slide19.png",""
2199,74,"single-stim",13,14,5555049,"0-0","s12","img/Slide20.png",""
3774,70,"single-stim",14,15,5559225,"0-0","s12","img/Slide12.png",""
6405,70,"single-stim",15,16,5566032,"0-0","s12","img/Slide08.png",""
3830,74,"single-stim",16,17,5570264,"0-0","s12","img/Slide23.png",""
1230,74,"single-stim",17,18,5571896,"0-0","s12","img/Slide22.png",""
2798,74,"single-stim",18,19,5575096,"0-0","s12","img/Slide19.png",""
2287,70,"single-stim",19,20,5577784,"0-0","s12","img/Slide05.png",""
1255,70,"single-stim",20,21,5579440,"0-0","s12","img/Slide15.png",""
1518,74,"single-stim",21,22,5581360,"0-0","s12","img/Slide25.png",""
2910,70,"single-stim",22,23,5584672,"0-0","s12","img/Slide27.png",""
6126,70,"single-stim",23,24,5591200,"0-0","s12","img/Slide10.png",""
1406,70,"single-stim",24,25,5593007,"0-0","s12","img/Slide04.png",""
1654,74,"single-stim",25,26,5595063,"0-0","s12","img/Slide24.png",""
2054,70,"single-stim",26,27,5597519,"0-0","s12","img/Slide09.png",""
1214,70,"single-stim",27,28,5599135,"0-0","s12","img/Slide07.png",""
1630,70,"single-stim",28,29,5601167,"0-0","s12","img/Slide27.png",""
3286,70,"single-stim",29,30,5604855,"0-0","s12","img/Slide09.png",""
2838,70,"single-stim",30,31,5608095,"0-0","s12","img/Slide03.png",""
1814,70,"single-stim",31,32,5610311,"0-0","s12","img/Slide15.png",""
4318,70,"single-stim",32,33,5615031,"0-0","s12","img/Slide13.png",""
1694,74,"single-stim",33,34,5617127,"0-0","s12","img/Slide23.png",""
1703,70,"single-stim",34,35,5619231,"0-0","s12","img/Slide03.png",""
2166,74,"single-stim",35,36,5621799,"0-0","s12","img/Slide17.png",""
1742,70,"single-stim",36,37,5623942,"0-0","s12","img/Slide07.png",""
1982,74,"single-stim",37,38,5626326,"0-0","s12","img/Slide19.png",""
1470,70,"single-stim",38,39,5628198,"0-0","s12","img/Slide05.png",""
2519,74,"single-stim",39,40,5631118,"0-0","s12","img/Slide24.png",""
1423,70,"single-stim",40,41,5632942,"0-0","s12","img/Slide29.png",""
1710,70,"single-stim",41,42,5635054,"0-0","s12","img/Slide29.png",""
1927,70,"single-stim",42,43,5637382,"0-0","s12","img/Slide12.png",""
3095,70,"single-stim",43,44,5640878,"0-0","s12","img/Slide08.png",""
1446,70,"single-stim",44,45,5642726,"0-0","s12","img/Slide14.png",""
1110,70,"single-stim",45,46,5644238,"0-0","s12","img/Slide29.png",""
1831,74,"single-stim",46,47,5646470,"0-0","s12","img/Slide24.png",""
4822,70,"single-stim",47,48,5651694,"0-0","s12","img/Slide28.png",""
1150,70,"single-stim",48,49,5653245,"0-0","s12","img/Slide03.png",""
1862,70,"single-stim",49,50,5655509,"0-0","s12","img/Slide09.png",""
1326,70,"single-stim",50,51,5657237,"0-0","s12","img/Slide10.png",""
854,70,"single-stim",51,52,5658493,"0-0","s12","img/Slide27.png",""
1062,70,"single-stim",52,53,5659957,"0-0","s12","img/Slide03.png",""
1086,74,"single-stim",53,54,5661445,"0-0","s12","img/Slide24.png",""
1334,70,"single-stim",54,55,5663181,"0-0","s12","img/Slide30.png",""
1974,70,"single-stim",55,56,5665557,"0-0","s12","img/Slide07.png",""
982,70,"single-stim",56,57,5666941,"0-0","s12","img/Slide05.png",""
