"","itemid","condition","cresp","experiment","item","question","question.acc","question.cresp","question.resp","question.rt","sentence","slide_1.resp","slide_1.rt","subject","trial","trial_abort","roi","FFD","FFP","SFD","FPRT","RBRT","TFT","RPD","CRPD","RRT","RRTP","RRTR","RBRC","TRC","LPRT","word","group","spill0len","spill1len","spill2len","spill","NPsubj","NPobj","logTFT","logFPRT","logRPD","wlen"
"2","10a","a","Y","quant","10","Were the books helpful?","1","right trigger","right trigger","11501","Abigail wrote each essay with minimal effort using several helpful books.","Y",208,"32","34","0","10",198,1,198,198,198,198,734,6069,0,0,0,1,1,198,"helpful ","1",4,3,4,"2","name","universal",5.28826703069454,5.28826703069454,6.59850902861452,7
"4","10a","a","Y","quant","10","Were the books helpful?","1","right trigger","right trigger","11501","Abigail wrote each essay with minimal effort using several helpful books.","Y",208,"32","34","0","3",87,1,0,87,574,574,3093,3093,487,487,0,1,1,487,"each ","1",4,3,4,"0","name","universal",6.35262939631957,4.46590811865458,8.03689677268507,4
"5","10a","a","Y","quant","10","Were the books helpful?","1","right trigger","right trigger","11501","Abigail wrote each essay with minimal effort using several helpful books.","Y",208,"32","34","0","4",533,1,0,533,533,732,533,3626,199,0,199,0,0,199,"essay ","1",4,3,4,"0","name","universal",6.59578051396131,6.27852142416584,6.27852142416584,5
"6","10a","a","Y","quant","10","Were the books helpful?","1","right trigger","right trigger","11501","Abigail wrote each essay with minimal effort using several helpful books.","Y",208,"32","34","0","5",287,1,287,287,287,287,287,3913,0,0,0,0,0,287,"with ","1",4,3,4,"1","name","universal",5.65948221575962,5.65948221575962,5.65948221575962,4
"7","10a","a","Y","quant","10","Were the books helpful?","1","right trigger","right trigger","11501","Abigail wrote each essay with minimal effort using several helpful books.","Y",208,"32","34","0","6",270,1,270,270,270,270,270,4183,0,0,0,0,0,270,"minimal ","1",4,3,4,"1","name","universal",5.59842195899838,5.59842195899838,5.59842195899838,7
"8","10a","a","Y","quant","10","Were the books helpful?","1","right trigger","right trigger","11501","Abigail wrote each essay with minimal effort using several helpful books.","Y",208,"32","34","0","7",303,1,303,303,303,303,303,4486,0,0,0,0,0,303,"effort ","1",4,3,4,"1","name","universal",5.71373280550937,5.71373280550937,5.71373280550937,6
"9","10a","a","Y","quant","10","Were the books helpful?","1","right trigger","right trigger","11501","Abigail wrote each essay with minimal effort using several helpful books.","Y",208,"32","34","0","8",487,1,487,487,487,487,487,4973,0,0,0,0,0,487,"using ","1",4,3,4,"2","name","universal",6.18826412308259,6.18826412308259,6.18826412308259,5
"10","10a","a","Y","quant","10","Were the books helpful?","1","right trigger","right trigger","11501","Abigail wrote each essay with minimal effort using several helpful books.","Y",208,"32","34","0","9",138,1,0,362,362,362,362,5335,0,0,0,0,0,362,"several ","1",4,3,4,"2","name","universal",5.89164421182577,5.89164421182577,5.89164421182577,7
"11","10a","a","Y","quant","10","Were the books helpful?","1","right trigger","right trigger","13923961","Abigail wrote each essay with minimal effort using several helpful books.","Y",146,"28","110","0","1",397,1,0,397,397,1853,397,397,1456,0,1456,0,0,1456,"Abigail ","1",4,3,4,"9","name","universal",7.52456122628536,5.98393628068719,5.98393628068719,7
"12","10a","a","Y","quant","10","Were the books helpful?","1","right trigger","right trigger","13923961","Abigail wrote each essay with minimal effort using several helpful books.","Y",146,"28","110","0","10",229,1,0,229,416,627,582,3744,398,187,211,1,2,211,"helpful ","1",4,3,4,"2","name","universal",6.44094654063292,5.43372200355424,6.36647044773144,7
"13","10a","a","Y","quant","10","Were the books helpful?","1","right trigger","right trigger","13923961","Abigail wrote each essay with minimal effort using several helpful books.","Y",146,"28","110","0","11",169,1,169,169,169,169,511,4255,0,0,0,1,1,169,"books. ","1",4,3,4,"2","name","universal",5.12989871492307,5.12989871492307,6.2363695902037,6
"14","10a","a","Y","quant","10","Were the books helpful?","1","right trigger","right trigger","13923961","Abigail wrote each essay with minimal effort using several helpful books.","Y",146,"28","110","0","2",182,1,0,182,443,443,1899,2296,261,261,0,1,1,261,"wrote ","1",4,3,4,"9","name","universal",6.09356977004514,5.2040066870768,7.54908271081229,5
"15","10a","a","Y","quant","10","Were the books helpful?","1","right trigger","right trigger","13923961","Abigail wrote each essay with minimal effort using several helpful books.","Y",146,"28","110","0","3",206,1,206,206,206,206,206,2502,0,0,0,0,0,206,"each ","1",4,3,4,"0","name","universal",5.32787616878958,5.32787616878958,5.32787616878958,4
"16","10a","a","Y","quant","10","Were the books helpful?","1","right trigger","right trigger","13923961","Abigail wrote each essay with minimal effort using several helpful books.","Y",146,"28","110","0","4",121,1,121,121,121,121,121,2623,0,0,0,0,0,121,"essay ","1",4,3,4,"0","name","universal",4.79579054559674,4.79579054559674,4.79579054559674,5
"17","10a","a","Y","quant","10","Were the books helpful?","1","right trigger","right trigger","13923961","Abigail wrote each essay with minimal effort using several helpful books.","Y",146,"28","110","0","5",281,1,281,281,281,281,281,2904,0,0,0,0,0,281,"with ","1",4,3,4,"1","name","universal",5.63835466933375,5.63835466933375,5.63835466933375,4
"18","10a","a","Y","quant","10","Were the books helpful?","1","right trigger","right trigger","13923961","Abigail wrote each essay with minimal effort using several helpful books.","Y",146,"28","110","0","7",141,1,141,141,141,141,141,3045,0,0,0,0,0,141,"effort ","1",4,3,4,"1","name","universal",4.94875989037817,4.94875989037817,4.94875989037817,6
"19","10a","a","Y","quant","10","Were the books helpful?","1","right trigger","right trigger","13923961","Abigail wrote each essay with minimal effort using several helpful books.","Y",146,"28","110","0","8",117,1,117,117,117,117,117,3162,0,0,0,0,0,117,"using ","1",4,3,4,"2","name","universal",4.76217393479776,4.76217393479776,4.76217393479776,5
"21","10a","a","Y","quant","10","Were the books helpful?","1","right trigger","right trigger","1706319","Abigail wrote each essay with minimal effort using several helpful books.","Y",250,"16","99","0","1",141,1,0,1224,1224,1224,1224,1224,0,0,0,0,0,1224,"Abigail ","1",4,3,4,"9","name","universal",7.10987946307227,7.10987946307227,7.10987946307227,7
"22","10a","a","Y","quant","10","Were the books helpful?","1","right trigger","right trigger","1706319","Abigail wrote each essay with minimal effort using several helpful books.","Y",250,"16","99","0","10",275,1,275,275,275,275,275,2906,0,0,0,0,0,275,"helpful ","1",4,3,4,"2","name","universal",5.61677109766657,5.61677109766657,5.61677109766657,7
"24","10a","a","Y","quant","10","Were the books helpful?","1","right trigger","right trigger","1706319","Abigail wrote each essay with minimal effort using several helpful books.","Y",250,"16","99","0","3",151,1,0,151,151,482,225,1449,331,0,331,1,1,331,"each ","1",4,3,4,"0","name","universal",6.1779441140506,5.01727983681492,5.41610040220442,4
"25","10a","a","Y","quant","10","Were the books helpful?","1","right trigger","right trigger","1706319","Abigail wrote each essay with minimal effort using several helpful books.","Y",250,"16","99","0","4",44,1,44,44,44,44,44,1493,0,0,0,0,0,44,"essay ","1",4,3,4,"0","name","universal",3.78418963391826,3.78418963391826,3.78418963391826,5
"26","10a","a","Y","quant","10","Were the books helpful?","1","right trigger","right trigger","1706319","Abigail wrote each essay with minimal effort using several helpful books.","Y",250,"16","99","0","5",99,1,0,99,267,267,598,2091,168,168,0,1,1,168,"with ","1",4,3,4,"1","name","universal",5.58724865840025,4.59511985013459,6.39359075395063,4
"27","10a","a","Y","quant","10","Were the books helpful?","1","right trigger","right trigger","1706319","Abigail wrote each essay with minimal effort using several helpful books.","Y",250,"16","99","0","6",160,1,160,160,160,160,160,2251,0,0,0,0,0,160,"minimal ","1",4,3,4,"1","name","universal",5.07517381523383,5.07517381523383,5.07517381523383,7
"28","10a","a","Y","quant","10","Were the books helpful?","1","right trigger","right trigger","1706319","Abigail wrote each essay with minimal effort using several helpful books.","Y",250,"16","99","0","7",97,1,97,97,97,97,97,2348,0,0,0,0,0,97,"effort ","1",4,3,4,"1","name","universal",4.57471097850338,4.57471097850338,4.57471097850338,6
"29","10a","a","Y","quant","10","Were the books helpful?","1","right trigger","right trigger","1706319","Abigail wrote each essay with minimal effort using several helpful books.","Y",250,"16","99","0","9",138,1,0,283,283,283,283,2631,0,0,0,0,0,283,"several ","1",4,3,4,"2","name","universal",5.64544689764324,5.64544689764324,5.64544689764324,7
"30","10a","a","Y","quant","10","Were the books helpful?","1","right trigger","right trigger","2576113","Abigail wrote each essay with minimal effort using several helpful books.","Y",550,"24","5","0","1",113,1,0,1055,1055,1055,1055,1055,0,0,0,0,0,1055,"Abigail ","1",4,3,4,"9","name","universal",6.96129604591017,6.96129604591017,6.96129604591017,7
"32","10a","a","Y","quant","10","Were the books helpful?","1","right trigger","right trigger","2576113","Abigail wrote each essay with minimal effort using several helpful books.","Y",550,"24","5","0","11",162,1,0,162,266,266,1901,4581,104,104,0,2,2,104,"books. ","1",4,3,4,"2","name","universal",5.5834963087817,5.08759633523238,7.55013534248843,6
"34","10a","a","Y","quant","10","Were the books helpful?","1","right trigger","right trigger","2576113","Abigail wrote each essay with minimal effort using several helpful books.","Y",550,"24","5","0","3",147,1,0,147,147,460,147,1202,313,0,313,0,0,187,"each ","1",4,3,4,"0","name","universal",6.13122648948314,4.99043258677874,4.99043258677874,4
"35","10a","a","Y","quant","10","Were the books helpful?","1","right trigger","right trigger","2576113","Abigail wrote each essay with minimal effort using several helpful books.","Y",550,"24","5","0","4",209,1,0,209,387,590,513,1715,381,178,203,1,1,203,"essay ","1",4,3,4,"0","name","universal",6.38012253689976,5.34233425196481,6.24027584517077,5
"38","10a","a","Y","quant","10","Were the books helpful?","1","right trigger","right trigger","2576113","Abigail wrote each essay with minimal effort using several helpful books.","Y",550,"24","5","0","7",176,1,0,176,176,302,478,2193,126,0,126,1,1,126,"effort ","1",4,3,4,"1","name","universal",5.71042701737487,5.17048399503815,6.16961073249146,6
"39","10a","a","Y","quant","10","Were the books helpful?","1","right trigger","right trigger","2576113","Abigail wrote each essay with minimal effort using several helpful books.","Y",550,"24","5","0","8",165,1,165,165,165,165,165,2358,0,0,0,0,0,165,"using ","1",4,3,4,"2","name","universal",5.10594547390058,5.10594547390058,5.10594547390058,5
"40","10a","a","Y","quant","10","Were the books helpful?","1","right trigger","right trigger","2576113","Abigail wrote each essay with minimal effort using several helpful books.","Y",550,"24","5","0","9",185,1,0,322,322,322,322,2680,0,0,0,0,0,322,"several ","1",4,3,4,"2","name","universal",5.77455154554441,5.77455154554441,5.77455154554441,7
"42","10a","a","Y","quant","10","Were the books helpful?","1","right trigger","right trigger","5798007","Abigail wrote each essay with minimal effort using several helpful books.","Y",710,"12","54","0","10",119,1,0,234,234,234,234,3640,0,0,0,0,0,234,"helpful ","1",4,3,4,"2","name","universal",5.4553211153577,5.4553211153577,5.4553211153577,7
"49","10a","a","Y","quant","10","Were the books helpful?","1","right trigger","right trigger","5798007","Abigail wrote each essay with minimal effort using several helpful books.","Y",710,"12","54","0","8",216,1,216,216,216,216,3110,3110,0,0,0,1,1,216,"using ","1",4,3,4,"2","name","universal",5.37527840768417,5.37527840768417,8.04237800517328,5
"50","10a","a","Y","quant","10","Were the books helpful?","1","right trigger","right trigger","5798007","Abigail wrote each essay with minimal effort using several helpful books.","Y",710,"12","54","0","9",130,1,0,296,296,296,296,3406,0,0,0,0,0,296,"several ","1",4,3,4,"2","name","universal",5.69035945432406,5.69035945432406,5.69035945432406,7
"52","10a","a","Y","quant","10","Were the books helpful?","1","right trigger","right trigger","6056694","Abigail wrote each essay with minimal effort using several helpful books.","Y",807,"8","118","0","10",256,1,0,256,256,662,480,4844,406,0,406,1,1,406,"helpful ","1",4,3,4,"2","name","universal",6.49526555593701,5.54517744447956,6.17378610390194,7
"53","10a","a","Y","quant","10","Were the books helpful?","1","right trigger","right trigger","6056694","Abigail wrote each essay with minimal effort using several helpful books.","Y",807,"8","118","0","11",196,1,0,196,499,499,1092,5936,303,303,0,1,1,303,"books. ","1",4,3,4,"2","name","universal",6.21260609575152,5.27811465923052,6.99576615630485,6
"60","10a","a","Y","quant","10","Were the books helpful?","1","right trigger","right trigger","6056694","Abigail wrote each essay with minimal effort using several helpful books.","Y",807,"8","118","0","8",233,1,0,233,374,374,3964,3964,141,141,0,1,1,141,"using ","1",4,3,4,"2","name","universal",5.92425579741453,5.4510384535657,8.28500889544988,5
"61","10a","a","Y","quant","10","Were the books helpful?","1","right trigger","right trigger","6056694","Abigail wrote each essay with minimal effort using several helpful books.","Y",807,"8","118","0","9",400,1,0,400,400,811,400,4364,411,0,411,0,0,187,"several ","1",4,3,4,"2","name","universal",6.69826805411541,5.99146454710798,5.99146454710798,7
"63","10a","a","Y","quant","10","Were the books helpful?","1","right trigger","right trigger","76765","Abigail wrote each essay with minimal effort using several helpful books.","Y",831,"36","34","0","10",69,1,69,69,69,69,357,4471,0,0,0,1,1,69,"helpful ","1",4,3,4,"2","name","universal",4.23410650459726,4.23410650459726,5.87773578177964,7
"68","10a","a","Y","quant","10","Were the books helpful?","1","right trigger","right trigger","76765","Abigail wrote each essay with minimal effort using several helpful books.","Y",831,"36","34","0","8",226,1,0,226,704,704,3820,3820,478,478,0,1,1,478,"using ","1",4,3,4,"2","name","universal",6.55677835615804,5.42053499927229,8.24800570160062,5
"69","10a","a","Y","quant","10","Were the books helpful?","1","right trigger","right trigger","76765","Abigail wrote each essay with minimal effort using several helpful books.","Y",831,"36","34","0","9",163,1,0,294,294,294,294,4114,0,0,0,0,0,294,"several ","1",4,3,4,"2","name","universal",5.68357976733868,5.68357976733868,5.68357976733868,7
"70","10a","a","Y","quant","10","Were the books helpful?","1","right trigger","right trigger","9382790","Abigail wrote each essay with minimal effort using several helpful books.","Y",960,"20","93","0","1",85,1,0,4015,4015,4015,4015,4015,0,0,0,0,0,4015,"Abigail ","1",4,3,4,"9","name","universal",8.29779262638086,8.29779262638086,8.29779262638086,7
"71","10a","a","Y","quant","10","Were the books helpful?","1","right trigger","right trigger","9382790","Abigail wrote each essay with minimal effort using several helpful books.","Y",960,"20","93","0","10",305,1,0,305,305,550,305,6545,245,0,245,0,0,245,"helpful ","1",4,3,4,"2","name","universal",6.30991827822652,5.72031177660741,5.72031177660741,7
"72","10a","a","Y","quant","10","Were the books helpful?","1","right trigger","right trigger","9382790","Abigail wrote each essay with minimal effort using several helpful books.","Y",960,"20","93","0","11",120,1,0,120,255,255,500,7045,135,135,0,1,1,135,"books. ","1",4,3,4,"2","name","universal",5.54126354515843,4.78749174278205,6.21460809842219,6
"73","10a","a","Y","quant","10","Were the books helpful?","1","right trigger","right trigger","9382790","Abigail wrote each essay with minimal effort using several helpful books.","Y",960,"20","93","0","2",186,1,186,186,186,186,186,4201,0,0,0,0,0,186,"wrote ","1",4,3,4,"9","name","universal",5.2257466737132,5.2257466737132,5.2257466737132,5
"74","10a","a","Y","quant","10","Were the books helpful?","1","right trigger","right trigger","9382790","Abigail wrote each essay with minimal effort using several helpful books.","Y",960,"20","93","0","3",233,1,233,233,233,233,233,4434,0,0,0,0,0,233,"each ","1",4,3,4,"0","name","universal",5.4510384535657,5.4510384535657,5.4510384535657,4
"75","10a","a","Y","quant","10","Were the books helpful?","1","right trigger","right trigger","9382790","Abigail wrote each essay with minimal effort using several helpful books.","Y",960,"20","93","0","4",127,1,127,127,127,127,127,4561,0,0,0,0,0,127,"essay ","1",4,3,4,"0","name","universal",4.84418708645859,4.84418708645859,4.84418708645859,5
"77","10a","a","Y","quant","10","Were the books helpful?","1","right trigger","right trigger","9382790","Abigail wrote each essay with minimal effort using several helpful books.","Y",960,"20","93","0","6",241,1,0,241,646,646,940,5501,405,405,0,2,2,405,"minimal ","1",4,3,4,"1","name","universal",6.4707995037826,5.48479693349065,6.84587987526405,7
"78","10a","a","Y","quant","10","Were the books helpful?","1","right trigger","right trigger","9382790","Abigail wrote each essay with minimal effort using several helpful books.","Y",960,"20","93","0","7",153,1,153,153,153,153,153,5654,0,0,0,0,0,153,"effort ","1",4,3,4,"1","name","universal",5.03043792139244,5.03043792139244,5.03043792139244,6
"79","10a","a","Y","quant","10","Were the books helpful?","1","right trigger","right trigger","9382790","Abigail wrote each essay with minimal effort using several helpful books.","Y",960,"20","93","0","8",151,1,151,151,151,151,151,5805,0,0,0,0,0,151,"using ","1",4,3,4,"2","name","universal",5.01727983681492,5.01727983681492,5.01727983681492,5
"80","10a","a","Y","quant","10","Were the books helpful?","1","right trigger","right trigger","9382790","Abigail wrote each essay with minimal effort using several helpful books.","Y",960,"20","93","0","9",227,1,0,435,435,435,435,6240,0,0,0,0,0,435,"several ","1",4,3,4,"2","name","universal",6.07534603108868,6.07534603108868,6.07534603108868,7
"81","10a","a","Y","quant","10","Were the books helpful?","1","right trigger","right trigger","971472","Abigail wrote each essay with minimal effort using several helpful books.","Y",1018,"4","111","0","1",112,1,0,1344,1344,1498,1344,1344,154,0,154,0,0,154,"Abigail ","1",4,3,4,"9","name","universal",7.31188616407716,7.20340552108309,7.20340552108309,7
"82","10a","a","Y","quant","10","Were the books helpful?","1","right trigger","right trigger","971472","Abigail wrote each essay with minimal effort using several helpful books.","Y",1018,"4","111","0","10",110,1,0,486,486,486,1131,4267,0,0,0,1,1,486,"helpful ","1",4,3,4,"2","name","universal",6.18620862390049,6.18620862390049,7.03085747611612,7
"83","10a","a","Y","quant","10","Were the books helpful?","1","right trigger","right trigger","971472","Abigail wrote each essay with minimal effort using several helpful books.","Y",1018,"4","111","0","2",191,1,191,191,191,191,191,1535,0,0,0,0,0,191,"wrote ","1",4,3,4,"9","name","universal",5.25227342804663,5.25227342804663,5.25227342804663,5
"84","10a","a","Y","quant","10","Were the books helpful?","1","right trigger","right trigger","971472","Abigail wrote each essay with minimal effort using several helpful books.","Y",1018,"4","111","0","3",161,1,161,161,161,161,161,1696,0,0,0,0,0,161,"each ","1",4,3,4,"0","name","universal",5.08140436498446,5.08140436498446,5.08140436498446,4
"85","10a","a","Y","quant","10","Were the books helpful?","1","right trigger","right trigger","971472","Abigail wrote each essay with minimal effort using several helpful books.","Y",1018,"4","111","0","4",243,1,0,243,243,431,243,1939,188,0,188,0,0,188,"essay ","1",4,3,4,"0","name","universal",6.06610809010375,5.49306144334055,5.49306144334055,5
"86","10a","a","Y","quant","10","Were the books helpful?","1","right trigger","right trigger","971472","Abigail wrote each essay with minimal effort using several helpful books.","Y",1018,"4","111","0","5",146,1,146,146,146,146,146,2085,0,0,0,0,0,146,"with ","1",4,3,4,"1","name","universal",4.98360662170834,4.98360662170834,4.98360662170834,4
"87","10a","a","Y","quant","10","Were the books helpful?","1","right trigger","right trigger","971472","Abigail wrote each essay with minimal effort using several helpful books.","Y",1018,"4","111","0","6",181,1,0,181,181,484,181,2266,303,0,303,0,0,303,"minimal ","1",4,3,4,"1","name","universal",6.18208490671663,5.19849703126583,5.19849703126583,7
"88","10a","a","Y","quant","10","Were the books helpful?","1","right trigger","right trigger","971472","Abigail wrote each essay with minimal effort using several helpful books.","Y",1018,"4","111","0","7",204,1,204,204,204,204,204,2470,0,0,0,0,0,204,"effort ","1",4,3,4,"1","name","universal",5.31811999384422,5.31811999384422,5.31811999384422,6
"89","10a","a","Y","quant","10","Were the books helpful?","1","right trigger","right trigger","971472","Abigail wrote each essay with minimal effort using several helpful books.","Y",1018,"4","111","0","8",172,1,0,315,315,315,315,2785,0,0,0,0,0,315,"using ","1",4,3,4,"2","name","universal",5.75257263882563,5.75257263882563,5.75257263882563,5
"90","10a","a","Y","quant","10","Were the books helpful?","1","right trigger","right trigger","971472","Abigail wrote each essay with minimal effort using several helpful books.","Y",1018,"4","111","0","9",167,1,0,351,351,351,351,3136,0,0,0,0,0,351,"several ","1",4,3,4,"2","name","universal",5.86078622346587,5.86078622346587,5.86078622346587,7
"92","10b","b","Y","quant","10","Were the books helpful?","1","right trigger","right trigger","12005466","Abigail wrote that essay with minimal effort using several helpful books.","Y",19,"17","91","0","10",162,1,0,162,466,466,1402,4956,304,304,0,2,2,304,"helpful ","1",4,3,4,"2","name","demonstrative",6.14418563412565,5.08759633523238,7.24565506759454,7
"93","10b","b","Y","quant","10","Were the books helpful?","1","right trigger","right trigger","12005466","Abigail wrote that essay with minimal effort using several helpful books.","Y",19,"17","91","0","11",49,1,49,49,49,49,428,5384,0,0,0,1,1,49,"books. ","1",4,3,4,"2","name","demonstrative",3.89182029811063,3.89182029811063,6.0591231955818,6
"99","10b","b","Y","quant","10","Were the books helpful?","1","right trigger","right trigger","12005466","Abigail wrote that essay with minimal effort using several helpful books.","Y",19,"17","91","0","7",56,1,0,56,187,332,3414,3414,276,131,145,1,1,145,"effort ","1",4,3,4,"1","name","demonstrative",5.80513496891649,4.02535169073515,8.13563990335439,6
"100","10b","b","Y","quant","10","Were the books helpful?","1","right trigger","right trigger","12005466","Abigail wrote that essay with minimal effort using several helpful books.","Y",19,"17","91","0","8",140,1,0,140,140,374,140,3554,234,0,234,0,0,234,"using ","1",4,3,4,"2","name","demonstrative",5.92425579741453,4.9416424226093,4.9416424226093,5
"102","10b","b","Y","quant","10","Were the books helpful?","1","right trigger","right trigger","12494247","Abigail wrote that essay with minimal effort using several helpful books.","Y",87,"37","122","0","1",135,1,0,1341,1341,1341,1341,1341,0,0,0,0,0,1341,"Abigail ","1",4,3,4,"9","name","demonstrative",7.20117088328168,7.20117088328168,7.20117088328168,7
"103","10b","b","Y","quant","10","Were the books helpful?","1","right trigger","right trigger","12494247","Abigail wrote that essay with minimal effort using several helpful books.","Y",87,"37","122","0","10",139,1,0,764,764,764,764,3566,0,0,0,0,0,764,"helpful ","1",4,3,4,"2","name","demonstrative",6.63856778916652,6.63856778916652,6.63856778916652,7
"104","10b","b","Y","quant","10","Were the books helpful?","1","right trigger","right trigger","12494247","Abigail wrote that essay with minimal effort using several helpful books.","Y",87,"37","122","0","2",156,1,156,156,156,156,156,1497,0,0,0,0,0,156,"wrote ","1",4,3,4,"9","name","demonstrative",5.04985600724954,5.04985600724954,5.04985600724954,5
"105","10b","b","Y","quant","10","Were the books helpful?","1","right trigger","right trigger","12494247","Abigail wrote that essay with minimal effort using several helpful books.","Y",87,"37","122","0","3",376,1,376,376,376,376,376,1873,0,0,0,0,0,376,"that ","1",4,3,4,"0","name","demonstrative",5.92958914338989,5.92958914338989,5.92958914338989,4
"106","10b","b","Y","quant","10","Were the books helpful?","1","right trigger","right trigger","12494247","Abigail wrote that essay with minimal effort using several helpful books.","Y",87,"37","122","0","5",241,1,241,241,241,241,241,2114,0,0,0,0,0,241,"with ","1",4,3,4,"1","name","demonstrative",5.48479693349065,5.48479693349065,5.48479693349065,4
"107","10b","b","Y","quant","10","Were the books helpful?","1","right trigger","right trigger","12494247","Abigail wrote that essay with minimal effort using several helpful books.","Y",87,"37","122","0","6",144,1,144,144,144,144,144,2258,0,0,0,0,0,144,"minimal ","1",4,3,4,"1","name","demonstrative",4.969813299576,4.969813299576,4.969813299576,7
"108","10b","b","Y","quant","10","Were the books helpful?","1","right trigger","right trigger","12494247","Abigail wrote that essay with minimal effort using several helpful books.","Y",87,"37","122","0","7",149,1,149,149,149,149,149,2407,0,0,0,0,0,149,"effort ","1",4,3,4,"1","name","demonstrative",5.00394630594546,5.00394630594546,5.00394630594546,6
"109","10b","b","Y","quant","10","Were the books helpful?","1","right trigger","right trigger","12494247","Abigail wrote that essay with minimal effort using several helpful books.","Y",87,"37","122","0","8",113,1,113,113,113,113,113,2520,0,0,0,0,0,113,"using ","1",4,3,4,"2","name","demonstrative",4.72738781871234,4.72738781871234,4.72738781871234,5
"110","10b","b","Y","quant","10","Were the books helpful?","1","right trigger","right trigger","12494247","Abigail wrote that essay with minimal effort using several helpful books.","Y",87,"37","122","0","9",282,1,282,282,282,282,282,2802,0,0,0,0,0,282,"several ","1",4,3,4,"2","name","demonstrative",5.64190707093811,5.64190707093811,5.64190707093811,7
"112","10b","b","Y","quant","10","Were the books helpful?","1","right trigger","right trigger","1770299","Abigail wrote that essay with minimal effort using several helpful books.","Y",289,"5","128","0","10",171,1,0,171,1194,1194,1371,3669,1023,1023,0,1,1,1023,"helpful ","1",4,3,4,"2","name","demonstrative",7.08506429395255,5.14166355650266,7.22329567956231,7
"113","10b","b","Y","quant","10","Were the books helpful?","1","right trigger","right trigger","1770299","Abigail wrote that essay with minimal effort using several helpful books.","Y",289,"5","128","0","2",136,1,0,136,301,301,1600,1600,165,165,0,1,1,165,"wrote ","1",4,3,4,"9","name","demonstrative",5.70711026474888,4.91265488573605,7.37775890822787,5
"114","10b","b","Y","quant","10","Were the books helpful?","1","right trigger","right trigger","1770299","Abigail wrote that essay with minimal effort using several helpful books.","Y",289,"5","128","0","4",181,1,0,429,429,429,429,2029,0,0,0,0,0,429,"essay ","1",4,3,4,"0","name","demonstrative",6.06145691892802,6.06145691892802,6.06145691892802,5
"115","10b","b","Y","quant","10","Were the books helpful?","1","right trigger","right trigger","1770299","Abigail wrote that essay with minimal effort using several helpful books.","Y",289,"5","128","0","6",155,1,155,155,155,155,155,2184,0,0,0,0,0,155,"minimal ","1",4,3,4,"1","name","demonstrative",5.04342511691925,5.04342511691925,5.04342511691925,7
"116","10b","b","Y","quant","10","Were the books helpful?","1","right trigger","right trigger","1770299","Abigail wrote that essay with minimal effort using several helpful books.","Y",289,"5","128","0","7",114,1,114,114,114,114,114,2298,0,0,0,0,0,114,"effort ","1",4,3,4,"1","name","demonstrative",4.7361984483945,4.7361984483945,4.7361984483945,6
"119","10b","b","Y","quant","10","Were the books helpful?","1","right trigger","right trigger","19792153","Abigail wrote that essay with minimal effort using several helpful books.","Y",337,"21","128","0","10",156,1,0,156,285,285,473,2795,129,129,0,1,1,129,"helpful ","1",4,3,4,"2","name","demonstrative",5.65248918026865,5.04985600724954,6.15909538849193,7
"125","10b","b","Y","quant","10","Were the books helpful?","1","right trigger","right trigger","19792153","Abigail wrote that essay with minimal effort using several helpful books.","Y",337,"21","128","0","8",143,1,143,143,143,143,2322,2322,0,0,0,1,1,143,"using ","1",4,3,4,"2","name","demonstrative",4.96284463025991,4.96284463025991,7.75018416225784,5
"127","10b","b","Y","quant","10","Were the books helpful?","1","right trigger","right trigger","1997048","Abigail wrote that essay with minimal effort using several helpful books.","Y",375,"1","33","0","1",327,1,0,1732,1732,1732,1732,1732,0,0,0,0,0,1732,"Abigail ","1",4,3,4,"9","name","demonstrative",7.45703208912238,7.45703208912238,7.45703208912238,7
"129","10b","b","Y","quant","10","Were the books helpful?","1","right trigger","right trigger","1997048","Abigail wrote that essay with minimal effort using several helpful books.","Y",375,"1","33","0","11",39,1,0,39,541,541,1906,4023,502,502,0,2,2,274,"books. ","1",4,3,4,"2","name","demonstrative",6.29341927884648,3.66356164612965,7.55276208421415,6
"130","10b","b","Y","quant","10","Were the books helpful?","1","right trigger","right trigger","1997048","Abigail wrote that essay with minimal effort using several helpful books.","Y",375,"1","33","0","2",173,1,173,173,173,173,173,1905,0,0,0,0,0,173,"wrote ","1",4,3,4,"9","name","demonstrative",5.15329159449778,5.15329159449778,5.15329159449778,5
"131","10b","b","Y","quant","10","Were the books helpful?","1","right trigger","right trigger","1997048","Abigail wrote that essay with minimal effort using several helpful books.","Y",375,"1","33","0","3",212,1,212,212,212,212,212,2117,0,0,0,0,0,212,"that ","1",4,3,4,"0","name","demonstrative",5.35658627467201,5.35658627467201,5.35658627467201,4
"136","10b","b","Y","quant","10","Were the books helpful?","1","right trigger","right trigger","20581638","Abigail wrote that essay with minimal effort using several helpful books.","Y",410,"29","121","0","10",218,1,0,451,451,451,451,5434,0,0,0,0,0,451,"helpful ","1",4,3,4,"2","name","demonstrative",6.11146733950268,6.11146733950268,6.11146733950268,7
"140","10b","b","Y","quant","10","Were the books helpful?","1","right trigger","right trigger","20581638","Abigail wrote that essay with minimal effort using several helpful books.","Y",410,"29","121","0","5",207,1,0,207,371,789,2685,2685,582,164,418,1,1,418,"with ","1",4,3,4,"1","name","demonstrative",6.67076632084587,5.33271879326537,7.89543600694297,4
"141","10b","b","Y","quant","10","Were the books helpful?","1","right trigger","right trigger","20581638","Abigail wrote that essay with minimal effort using several helpful books.","Y",410,"29","121","0","6",201,1,0,392,392,552,392,3077,160,0,160,0,0,160,"minimal ","1",4,3,4,"1","name","demonstrative",6.31354804627709,5.97126183979046,5.97126183979046,7
"142","10b","b","Y","quant","10","Were the books helpful?","1","right trigger","right trigger","20581638","Abigail wrote that essay with minimal effort using several helpful books.","Y",410,"29","121","0","7",156,1,0,312,312,648,312,3389,336,0,336,0,0,336,"effort ","1",4,3,4,"1","name","demonstrative",6.47389069635227,5.74300318780948,5.74300318780948,6
"143","10b","b","Y","quant","10","Were the books helpful?","1","right trigger","right trigger","20581638","Abigail wrote that essay with minimal effort using several helpful books.","Y",410,"29","121","0","9",131,1,0,300,680,680,1594,4983,380,380,0,1,1,380,"several ","1",4,3,4,"2","name","demonstrative",6.52209279817015,5.7037824746562,7.37400185935016,7
"145","10b","b","Y","quant","10","Were the books helpful?","1","right trigger","right trigger","5853819","Abigail wrote that essay with minimal effort using several helpful books.","Y",763,"33","18","0","10",201,1,201,201,201,201,539,4072,0,0,0,1,1,201,"helpful ","1",4,3,4,"2","name","demonstrative",5.30330490805908,5.30330490805908,6.289715570909,7
"152","10b","b","Y","quant","10","Were the books helpful?","1","right trigger","right trigger","5853819","Abigail wrote that essay with minimal effort using several helpful books.","Y",763,"33","18","0","8",96,1,96,96,96,96,3345,3345,0,0,0,1,1,96,"using ","1",4,3,4,"2","name","demonstrative",4.56434819146784,4.56434819146784,8.11522197256233,5
"153","10b","b","Y","quant","10","Were the books helpful?","1","right trigger","right trigger","5853819","Abigail wrote that essay with minimal effort using several helpful books.","Y",763,"33","18","0","9",188,1,188,188,188,188,188,3533,0,0,0,0,0,188,"several ","1",4,3,4,"2","name","demonstrative",5.23644196282995,5.23644196282995,5.23644196282995,7
"154","10b","b","Y","quant","10","Were the books helpful?","1","right trigger","right trigger","8363558","Abigail wrote that essay with minimal effort using several helpful books.","Y",843,"9","119","0","1",172,1,0,940,940,940,940,940,0,0,0,0,0,940,"Abigail ","1",4,3,4,"9","name","demonstrative",6.84587987526405,6.84587987526405,6.84587987526405,7
"155","10b","b","Y","quant","10","Were the books helpful?","1","right trigger","right trigger","8363558","Abigail wrote that essay with minimal effort using several helpful books.","Y",843,"9","119","0","10",238,1,238,238,238,238,238,2039,0,0,0,0,0,238,"helpful ","1",4,3,4,"2","name","demonstrative",5.47227067367148,5.47227067367148,5.47227067367148,7
"156","10b","b","Y","quant","10","Were the books helpful?","1","right trigger","right trigger","8363558","Abigail wrote that essay with minimal effort using several helpful books.","Y",843,"9","119","0","11",271,1,271,271,271,271,271,2310,0,0,0,0,0,271,"books. ","1",4,3,4,"2","name","demonstrative",5.6021188208797,5.6021188208797,5.6021188208797,6
"157","10b","b","Y","quant","10","Were the books helpful?","1","right trigger","right trigger","8363558","Abigail wrote that essay with minimal effort using several helpful books.","Y",843,"9","119","0","3",267,1,267,267,267,267,267,1207,0,0,0,0,0,267,"that ","1",4,3,4,"0","name","demonstrative",5.58724865840025,5.58724865840025,5.58724865840025,4
"158","10b","b","Y","quant","10","Were the books helpful?","1","right trigger","right trigger","8363558","Abigail wrote that essay with minimal effort using several helpful books.","Y",843,"9","119","0","5",160,1,160,160,160,160,160,1367,0,0,0,0,0,160,"with ","1",4,3,4,"1","name","demonstrative",5.07517381523383,5.07517381523383,5.07517381523383,4
"159","10b","b","Y","quant","10","Were the books helpful?","1","right trigger","right trigger","8363558","Abigail wrote that essay with minimal effort using several helpful books.","Y",843,"9","119","0","6",183,1,183,183,183,183,183,1550,0,0,0,0,0,183,"minimal ","1",4,3,4,"1","name","demonstrative",5.20948615284142,5.20948615284142,5.20948615284142,7
"160","10b","b","Y","quant","10","Were the books helpful?","1","right trigger","right trigger","8363558","Abigail wrote that essay with minimal effort using several helpful books.","Y",843,"9","119","0","7",158,1,158,158,158,158,158,1708,0,0,0,0,0,158,"effort ","1",4,3,4,"1","name","demonstrative",5.06259503302697,5.06259503302697,5.06259503302697,6
"161","10b","b","Y","quant","10","Were the books helpful?","1","right trigger","right trigger","8363558","Abigail wrote that essay with minimal effort using several helpful books.","Y",843,"9","119","0","8",93,1,93,93,93,93,93,1801,0,0,0,0,0,93,"using ","1",4,3,4,"2","name","demonstrative",4.53259949315326,4.53259949315326,4.53259949315326,5
"164","10b","b","Y","quant","10","Were the books helpful?","1","right trigger","right trigger","9117867","Abigail wrote that essay with minimal effort using several helpful books.","Y",879,"13","111","0","11",86,1,86,86,86,86,3484,3484,0,0,0,1,1,86,"books. ","1",4,3,4,"2","name","demonstrative",4.45434729625351,4.45434729625351,8.15593633797239,6
"174","10c","c","Y","quant","10","Were the books helpful?","0","right trigger","left trigger","459851","Some novelist wrote each essay with minimal effort using several helpful books.","Y",652,"2","53","0","10",171,1,171,171,171,171,171,3137,0,0,0,0,0,171,"several ","3",5,3,4,"2","existential","universal",5.14166355650266,5.14166355650266,5.14166355650266,7
"175","10c","c","Y","quant","10","Were the books helpful?","0","right trigger","left trigger","459851","Some novelist wrote each essay with minimal effort using several helpful books.","Y",652,"2","53","0","11",180,1,180,180,180,180,694,3831,0,0,0,1,1,180,"helpful ","3",5,3,4,"2","existential","universal",5.19295685089021,5.19295685089021,6.5424719605068,7
"180","10c","c","Y","quant","10","Were the books helpful?","0","right trigger","left trigger","459851","Some novelist wrote each essay with minimal effort using several helpful books.","Y",652,"2","53","0","8",267,1,0,267,408,408,2966,2966,141,141,0,1,1,141,"effort ","3",5,3,4,"1","existential","universal",6.01126717440416,5.58724865840025,7.99496952269788,6
"183","10c","c","Y","quant","10","Were the books helpful?","0","right trigger","left trigger","581514","Some novelist wrote each essay with minimal effort using several helpful books.","Y",743,"22","84","0","11",212,1,0,212,212,529,309,2959,317,0,317,1,2,317,"helpful ","3",5,3,4,"2","existential","universal",6.2709884318583,5.35658627467201,5.73334127689775,7
"184","10c","c","Y","quant","10","Were the books helpful?","0","right trigger","left trigger","581514","Some novelist wrote each essay with minimal effort using several helpful books.","Y",743,"22","84","0","12",285,1,285,285,285,285,972,3931,0,0,0,1,1,285,"books. ","3",5,3,4,"2","existential","universal",5.65248918026865,5.65248918026865,6.87935580446044,6
"191","10c","c","Y","quant","10","Were the books helpful?","0","right trigger","left trigger","581514","Some novelist wrote each essay with minimal effort using several helpful books.","Y",743,"22","84","0","8",15,1,15,15,15,15,2451,2451,0,0,0,1,1,15,"effort ","3",5,3,4,"1","existential","universal",2.70805020110221,2.70805020110221,7.80425138352811,6
"192","10c","c","Y","quant","10","Were the books helpful?","0","right trigger","left trigger","581514","Some novelist wrote each essay with minimal effort using several helpful books.","Y",743,"22","84","0","9",199,1,199,199,199,199,199,2650,0,0,0,0,0,199,"using ","3",5,3,4,"2","existential","universal",5.29330482472449,5.29330482472449,5.29330482472449,5
"193","10c","c","Y","quant","10","Were the books helpful?","1","right trigger","right trigger","122164","Some novelist wrote each essay with minimal effort using several helpful books.","Y",65,"30","75","0","1",169,1,0,1145,1145,1145,1145,1145,0,0,0,0,0,1145,"Some ","3",5,3,4,"9","existential","universal",7.04315991598834,7.04315991598834,7.04315991598834,4
"194","10c","c","Y","quant","10","Were the books helpful?","1","right trigger","right trigger","122164","Some novelist wrote each essay with minimal effort using several helpful books.","Y",65,"30","75","0","10",413,1,413,413,413,413,765,2996,0,0,0,1,1,413,"several ","3",5,3,4,"2","existential","universal",6.02344759296103,6.02344759296103,6.63987583382654,7
"195","10c","c","Y","quant","10","Were the books helpful?","1","right trigger","right trigger","122164","Some novelist wrote each essay with minimal effort using several helpful books.","Y",65,"30","75","0","11",51,1,51,51,51,51,51,3047,0,0,0,0,0,51,"helpful ","3",5,3,4,"2","existential","universal",3.93182563272433,3.93182563272433,3.93182563272433,7
"196","10c","c","Y","quant","10","Were the books helpful?","1","right trigger","right trigger","122164","Some novelist wrote each essay with minimal effort using several helpful books.","Y",65,"30","75","0","3",197,1,0,197,197,351,197,1342,154,0,154,0,0,154,"wrote ","3",5,3,4,"9","existential","universal",5.86078622346587,5.28320372873799,5.28320372873799,5
"197","10c","c","Y","quant","10","Were the books helpful?","1","right trigger","right trigger","122164","Some novelist wrote each essay with minimal effort using several helpful books.","Y",65,"30","75","0","4",328,1,0,328,328,526,328,1670,198,0,198,0,0,198,"each ","3",5,3,4,"0","existential","universal",6.26530121273771,5.79301360838414,5.79301360838414,4
"198","10c","c","Y","quant","10","Were the books helpful?","1","right trigger","right trigger","122164","Some novelist wrote each essay with minimal effort using several helpful books.","Y",65,"30","75","0","5",115,1,115,115,115,115,115,1785,0,0,0,0,0,115,"essay ","3",5,3,4,"0","existential","universal",4.74493212836325,4.74493212836325,4.74493212836325,5
"199","10c","c","Y","quant","10","Were the books helpful?","1","right trigger","right trigger","122164","Some novelist wrote each essay with minimal effort using several helpful books.","Y",65,"30","75","0","7",197,1,197,197,197,197,197,1982,0,0,0,0,0,197,"minimal ","3",5,3,4,"1","existential","universal",5.28320372873799,5.28320372873799,5.28320372873799,7
"200","10c","c","Y","quant","10","Were the books helpful?","1","right trigger","right trigger","122164","Some novelist wrote each essay with minimal effort using several helpful books.","Y",65,"30","75","0","8",249,1,249,249,249,249,249,2231,0,0,0,0,0,249,"effort ","3",5,3,4,"1","existential","universal",5.51745289646471,5.51745289646471,5.51745289646471,6
"201","10c","c","Y","quant","10","Were the books helpful?","1","right trigger","right trigger","12316327","Some novelist wrote each essay with minimal effort using several helpful books.","Y",56,"14","104","0","1",144,1,0,1100,1100,1100,1100,1100,0,0,0,0,0,1100,"Some ","3",5,3,4,"9","existential","universal",7.00306545878646,7.00306545878646,7.00306545878646,4
"203","10c","c","Y","quant","10","Were the books helpful?","1","right trigger","right trigger","12316327","Some novelist wrote each essay with minimal effort using several helpful books.","Y",56,"14","104","0","11",148,1,0,148,639,639,2466,5207,491,491,0,3,3,176,"helpful ","3",5,3,4,"2","existential","universal",6.45990445437753,4.99721227376411,7.81035268372429,7
"204","10c","c","Y","quant","10","Were the books helpful?","1","right trigger","right trigger","12316327","Some novelist wrote each essay with minimal effort using several helpful books.","Y",56,"14","104","0","2",263,1,0,433,433,669,433,1533,236,0,236,0,0,236,"novelist ","3",5,3,4,"9","existential","universal",6.50578406012823,6.07073772800249,6.07073772800249,8
"205","10c","c","Y","quant","10","Were the books helpful?","1","right trigger","right trigger","12316327","Some novelist wrote each essay with minimal effort using several helpful books.","Y",56,"14","104","0","3",179,1,0,179,179,354,179,1712,175,0,175,0,0,175,"wrote ","3",5,3,4,"9","existential","universal",5.86929691313377,5.18738580584075,5.18738580584075,5
"206","10c","c","Y","quant","10","Were the books helpful?","1","right trigger","right trigger","12316327","Some novelist wrote each essay with minimal effort using several helpful books.","Y",56,"14","104","0","4",353,1,353,353,353,353,353,2065,0,0,0,0,0,353,"each ","3",5,3,4,"0","existential","universal",5.8664680569333,5.8664680569333,5.8664680569333,4
"209","10c","c","Y","quant","10","Were the books helpful?","1","right trigger","right trigger","12316327","Some novelist wrote each essay with minimal effort using several helpful books.","Y",56,"14","104","0","7",201,1,0,201,201,543,361,2426,342,0,342,1,1,171,"minimal ","3",5,3,4,"1","existential","universal",6.29710931993394,5.30330490805908,5.88887795833288,7
"210","10c","c","Y","quant","10","Were the books helpful?","1","right trigger","right trigger","12316327","Some novelist wrote each essay with minimal effort using several helpful books.","Y",56,"14","104","0","8",315,1,0,315,315,496,315,2741,181,0,181,0,1,181,"effort ","3",5,3,4,"1","existential","universal",6.20657592672493,5.75257263882563,5.75257263882563,6
"211","10c","c","Y","quant","10","Were the books helpful?","1","right trigger","right trigger","1555322","Some novelist wrote each essay with minimal effort using several helpful books.","Y",240,"10","51","0","1",116,1,0,1735,1735,1930,1735,1735,195,0,195,0,0,195,"Some ","3",5,3,4,"9","existential","universal",7.56527528189893,7.45876269238096,7.45876269238096,4
"213","10c","c","Y","quant","10","Were the books helpful?","1","right trigger","right trigger","1555322","Some novelist wrote each essay with minimal effort using several helpful books.","Y",240,"10","51","0","11",203,1,0,203,345,345,1166,4391,142,142,0,2,2,142,"helpful ","3",5,3,4,"2","existential","universal",5.84354441703136,5.31320597904179,7.06133436691044,7
"214","10c","c","Y","quant","10","Were the books helpful?","1","right trigger","right trigger","1555322","Some novelist wrote each essay with minimal effort using several helpful books.","Y",240,"10","51","0","2",223,1,0,223,223,553,223,1958,330,0,330,0,1,330,"novelist ","3",5,3,4,"9","existential","universal",6.31535800152233,5.40717177146012,5.40717177146012,8
"215","10c","c","Y","quant","10","Were the books helpful?","1","right trigger","right trigger","1555322","Some novelist wrote each essay with minimal effort using several helpful books.","Y",240,"10","51","0","3",236,1,236,236,236,236,236,2194,0,0,0,0,0,236,"wrote ","3",5,3,4,"9","existential","universal",5.46383180502561,5.46383180502561,5.46383180502561,5
"216","10c","c","Y","quant","10","Were the books helpful?","1","right trigger","right trigger","1555322","Some novelist wrote each essay with minimal effort using several helpful books.","Y",240,"10","51","0","4",327,1,0,327,327,435,327,2521,108,0,108,0,0,108,"each ","3",5,3,4,"0","existential","universal",6.07534603108868,5.78996017089725,5.78996017089725,4
"217","10c","c","Y","quant","10","Were the books helpful?","1","right trigger","right trigger","1555322","Some novelist wrote each essay with minimal effort using several helpful books.","Y",240,"10","51","0","7",283,1,283,283,283,283,283,2804,0,0,0,0,0,283,"minimal ","3",5,3,4,"1","existential","universal",5.64544689764324,5.64544689764324,5.64544689764324,7
"218","10c","c","Y","quant","10","Were the books helpful?","1","right trigger","right trigger","1555322","Some novelist wrote each essay with minimal effort using several helpful books.","Y",240,"10","51","0","8",218,1,218,218,218,218,218,3022,0,0,0,0,0,218,"effort ","3",5,3,4,"1","existential","universal",5.38449506278909,5.38449506278909,5.38449506278909,6
"219","10c","c","Y","quant","10","Were the books helpful?","1","right trigger","right trigger","1555322","Some novelist wrote each essay with minimal effort using several helpful books.","Y",240,"10","51","0","9",203,1,203,203,203,203,203,3225,0,0,0,0,0,203,"using ","3",5,3,4,"2","existential","universal",5.31320597904179,5.31320597904179,5.31320597904179,5
"221","10c","c","Y","quant","10","Were the books helpful?","1","right trigger","right trigger","2548594","Some novelist wrote each essay with minimal effort using several helpful books.","Y",509,"18","63","0","10",137,1,0,137,550,550,2355,2355,413,413,0,1,1,413,"several ","3",5,3,4,"2","existential","universal",6.30991827822652,4.91998092582813,7.76429600645052,7
"222","10c","c","Y","quant","10","Were the books helpful?","1","right trigger","right trigger","2548594","Some novelist wrote each essay with minimal effort using several helpful books.","Y",509,"18","63","0","11",94,1,94,94,94,94,94,2449,0,0,0,0,0,94,"helpful ","3",5,3,4,"2","existential","universal",4.54329478227,4.54329478227,4.54329478227,7
"229","10c","c","Y","quant","10","Were the books helpful?","1","right trigger","right trigger","400675","Some novelist wrote each essay with minimal effort using several helpful books.","Y",587,"38","5","0","11",179,1,0,179,497,497,2577,5661,318,318,0,2,2,318,"helpful ","3",5,3,4,"2","existential","universal",6.20859002609663,5.18738580584075,7.85438121065236,7
"230","10c","c","Y","quant","10","Were the books helpful?","1","right trigger","right trigger","400675","Some novelist wrote each essay with minimal effort using several helpful books.","Y",587,"38","5","0","2",155,1,0,155,406,1365,1653,1653,1210,251,959,1,1,495,"novelist ","3",5,3,4,"9","existential","universal",7.21890970761906,5.04342511691925,7.41034709782102,8
"231","10c","c","Y","quant","10","Were the books helpful?","1","right trigger","right trigger","400675","Some novelist wrote each essay with minimal effort using several helpful books.","Y",587,"38","5","0","3",237,1,0,237,400,1102,521,2174,865,163,702,1,2,702,"wrote ","3",5,3,4,"9","existential","universal",7.00488198971286,5.46806014113513,6.25575004175337,5
"232","10c","c","Y","quant","10","Were the books helpful?","1","right trigger","right trigger","400675","Some novelist wrote each essay with minimal effort using several helpful books.","Y",587,"38","5","0","4",204,1,0,204,204,412,204,2378,208,0,208,0,0,208,"each ","3",5,3,4,"0","existential","universal",6.02102334934953,5.31811999384422,5.31811999384422,4
"233","10c","c","Y","quant","10","Were the books helpful?","1","right trigger","right trigger","400675","Some novelist wrote each essay with minimal effort using several helpful books.","Y",587,"38","5","0","5",196,1,0,196,196,385,196,2574,189,0,189,0,0,189,"essay ","3",5,3,4,"0","existential","universal",5.95324333428778,5.27811465923052,5.27811465923052,5
"234","10c","c","Y","quant","10","Were the books helpful?","1","right trigger","right trigger","400675","Some novelist wrote each essay with minimal effort using several helpful books.","Y",587,"38","5","0","7",263,1,263,263,263,263,263,2837,0,0,0,0,0,263,"minimal ","3",5,3,4,"1","existential","universal",5.57215403217776,5.57215403217776,5.57215403217776,7
"235","10c","c","Y","quant","10","Were the books helpful?","1","right trigger","right trigger","400675","Some novelist wrote each essay with minimal effort using several helpful books.","Y",587,"38","5","0","8",184,1,184,184,184,184,184,3021,0,0,0,0,0,184,"effort ","3",5,3,4,"1","existential","universal",5.21493575760899,5.21493575760899,5.21493575760899,6
"236","10c","c","Y","quant","10","Were the books helpful?","1","right trigger","right trigger","400675","Some novelist wrote each essay with minimal effort using several helpful books.","Y",587,"38","5","0","9",63,1,63,63,63,63,63,3084,0,0,0,0,0,63,"using ","3",5,3,4,"2","existential","universal",4.14313472639153,4.14313472639153,4.14313472639153,5
"238","10c","c","Y","quant","10","Were the books helpful?","1","right trigger","right trigger","9334435","Some novelist wrote each essay with minimal effort using several helpful books.","Y",930,"6","26","0","10",153,1,0,290,290,635,290,3283,345,0,345,0,0,345,"several ","3",5,3,4,"2","existential","universal",6.45362499889269,5.66988092298052,5.66988092298052,7
"239","10c","c","Y","quant","10","Were the books helpful?","1","right trigger","right trigger","9334435","Some novelist wrote each essay with minimal effort using several helpful books.","Y",930,"6","26","0","11",166,1,0,166,541,541,2793,6076,375,375,0,3,3,334,"helpful ","3",5,3,4,"2","existential","universal",6.29341927884648,5.11198778835654,7.93487156594518,7
"246","10c","c","Y","quant","10","Were the books helpful?","1","right trigger","right trigger","9334435","Some novelist wrote each essay with minimal effort using several helpful books.","Y",930,"6","26","0","8",247,1,0,247,410,506,2993,2993,259,163,96,2,2,96,"effort ","3",5,3,4,"1","existential","universal",6.22653666928747,5.50938833662798,8.0040315078527,6
"248","10c","c","Y","quant","10","Were the books helpful?","1","right trigger","right trigger","9335713","Some novelist wrote each essay with minimal effort using several helpful books.","Y",940,"26","106","0","10",252,1,0,252,252,423,252,4950,171,0,171,0,0,171,"several ","3",5,3,4,"2","existential","universal",6.04737217904628,5.52942908751142,5.52942908751142,7
"249","10c","c","Y","quant","10","Were the books helpful?","1","right trigger","right trigger","9335713","Some novelist wrote each essay with minimal effort using several helpful books.","Y",940,"26","106","0","11",239,1,0,239,239,376,239,5189,137,0,137,0,0,137,"helpful ","3",5,3,4,"2","existential","universal",5.92958914338989,5.47646355193151,5.47646355193151,7
"250","10c","c","Y","quant","10","Were the books helpful?","1","right trigger","right trigger","9335713","Some novelist wrote each essay with minimal effort using several helpful books.","Y",940,"26","106","0","12",146,1,0,146,309,309,1655,6844,163,163,0,2,2,163,"books. ","3",5,3,4,"2","existential","universal",5.73334127689775,4.98360662170834,7.41155628781116,6
"252","10c","c","Y","quant","10","Were the books helpful?","1","right trigger","right trigger","9335713","Some novelist wrote each essay with minimal effort using several helpful books.","Y",940,"26","106","0","3",116,1,0,116,311,535,2598,2598,419,195,224,1,1,224,"wrote ","3",5,3,4,"9","existential","universal",6.28226674689601,4.75359019110636,7.86249719723055,5
"253","10c","c","Y","quant","10","Were the books helpful?","1","right trigger","right trigger","9335713","Some novelist wrote each essay with minimal effort using several helpful books.","Y",940,"26","106","0","4",372,1,0,372,372,650,372,2970,278,0,278,0,0,119,"each ","3",5,3,4,"0","existential","universal",6.47697236288968,5.91889385427315,5.91889385427315,4
"254","10c","c","Y","quant","10","Were the books helpful?","1","right trigger","right trigger","9335713","Some novelist wrote each essay with minimal effort using several helpful books.","Y",940,"26","106","0","5",134,1,0,134,134,427,134,3104,293,0,293,0,0,293,"essay ","3",5,3,4,"0","existential","universal",6.05678401322862,4.89783979995091,4.89783979995091,5
"255","10c","c","Y","quant","10","Were the books helpful?","1","right trigger","right trigger","9335713","Some novelist wrote each essay with minimal effort using several helpful books.","Y",940,"26","106","0","6",149,1,0,149,149,301,149,3253,152,0,152,0,0,152,"with ","3",5,3,4,"1","existential","universal",5.70711026474888,5.00394630594546,5.00394630594546,4
"256","10c","c","Y","quant","10","Were the books helpful?","1","right trigger","right trigger","9335713","Some novelist wrote each essay with minimal effort using several helpful books.","Y",940,"26","106","0","7",143,1,143,143,143,143,295,3548,0,0,0,1,1,143,"minimal ","3",5,3,4,"1","existential","universal",4.96284463025991,4.96284463025991,5.68697535633982,7
"257","10c","c","Y","quant","10","Were the books helpful?","1","right trigger","right trigger","9335713","Some novelist wrote each essay with minimal effort using several helpful books.","Y",940,"26","106","0","8",169,1,0,169,169,712,169,3717,543,0,543,0,2,159,"effort ","3",5,3,4,"1","existential","universal",6.56807791141198,5.12989871492307,5.12989871492307,6
"258","10c","c","Y","quant","10","Were the books helpful?","1","right trigger","right trigger","9335713","Some novelist wrote each essay with minimal effort using several helpful books.","Y",940,"26","106","0","9",180,1,0,180,305,389,981,4698,209,125,84,1,1,84,"using ","3",5,3,4,"2","existential","universal",5.96357934361845,5.19295685089021,6.88857245956536,5
"261","10c","c","Y","quant","10","Were the books helpful?","1","right trigger","right trigger","9559240","Some novelist wrote each essay with minimal effort using several helpful books.","Y",1007,"34","41","0","11",113,1,0,113,348,348,631,4590,235,235,0,1,1,235,"helpful ","3",5,3,4,"2","existential","universal",5.85220247977447,4.72738781871234,6.44730586254121,7
"262","10c","c","Y","quant","10","Were the books helpful?","1","right trigger","right trigger","9559240","Some novelist wrote each essay with minimal effort using several helpful books.","Y",1007,"34","41","0","12",318,1,0,573,573,573,2523,7113,0,0,0,1,1,573,"books. ","3",5,3,4,"2","existential","universal",6.35088571671474,6.35088571671474,7.83320394864106,6
"263","10c","c","Y","quant","10","Were the books helpful?","1","right trigger","right trigger","9559240","Some novelist wrote each essay with minimal effort using several helpful books.","Y",1007,"34","41","0","2",98,1,0,98,540,687,1705,1705,589,442,147,2,3,147,"novelist ","3",5,3,4,"9","existential","universal",6.53233429222235,4.58496747867057,7.44132038971762,8
"264","10c","c","Y","quant","10","Were the books helpful?","1","right trigger","right trigger","9559240","Some novelist wrote each essay with minimal effort using several helpful books.","Y",1007,"34","41","0","3",237,1,0,237,237,429,237,1942,192,0,192,0,0,192,"wrote ","3",5,3,4,"9","existential","universal",6.06145691892802,5.46806014113513,5.46806014113513,5
"265","10c","c","Y","quant","10","Were the books helpful?","1","right trigger","right trigger","9559240","Some novelist wrote each essay with minimal effort using several helpful books.","Y",1007,"34","41","0","4",512,1,0,512,512,1446,512,2454,934,0,934,0,0,934,"each ","3",5,3,4,"0","existential","universal",7.27655640271871,6.23832462503951,6.23832462503951,4
"266","10c","c","Y","quant","10","Were the books helpful?","1","right trigger","right trigger","9559240","Some novelist wrote each essay with minimal effort using several helpful books.","Y",1007,"34","41","0","6",506,1,0,506,506,610,506,2960,104,0,104,0,0,104,"with ","3",5,3,4,"1","existential","universal",6.41345895716736,6.22653666928747,6.22653666928747,4
"267","10c","c","Y","quant","10","Were the books helpful?","1","right trigger","right trigger","9559240","Some novelist wrote each essay with minimal effort using several helpful books.","Y",1007,"34","41","0","7",198,1,0,555,555,936,555,3515,381,0,381,0,1,381,"minimal ","3",5,3,4,"1","existential","universal",6.84161547647759,6.31896811374643,6.31896811374643,7
"268","10c","c","Y","quant","10","Were the books helpful?","1","right trigger","right trigger","9559240","Some novelist wrote each essay with minimal effort using several helpful books.","Y",1007,"34","41","0","8",265,1,265,265,265,265,265,3780,0,0,0,0,0,265,"effort ","3",5,3,4,"1","existential","universal",5.57972982598622,5.57972982598622,5.57972982598622,6
"269","10c","c","Y","quant","10","Were the books helpful?","1","right trigger","right trigger","9559240","Some novelist wrote each essay with minimal effort using several helpful books.","Y",1007,"34","41","0","9",179,1,179,179,179,179,179,3959,0,0,0,0,0,179,"using ","3",5,3,4,"2","existential","universal",5.18738580584075,5.18738580584075,5.18738580584075,5
"271","10d","d","Y","quant","10","Were the books helpful?","0","right trigger","left trigger","5124719","Some novelist wrote that essay with minimal effort using several helpful books.","Y",698,"39","20","0","10",167,1,0,311,311,530,311,2971,219,0,219,0,0,219,"several ","3",5,3,4,"2","existential","demonstrative",6.27287700654617,5.73979291217923,5.73979291217923,7
"273","10d","d","Y","quant","10","Were the books helpful?","0","right trigger","left trigger","5124719","Some novelist wrote that essay with minimal effort using several helpful books.","Y",698,"39","20","0","12",587,1,587,587,587,587,2786,5757,0,0,0,1,1,587,"books. ","3",5,3,4,"2","existential","demonstrative",6.3750248198281,6.3750248198281,7.93236215433975,6
"281","10d","d","Y","quant","10","Were the books helpful?","0","right trigger","left trigger","5124719","Some novelist wrote that essay with minimal effort using several helpful books.","Y",698,"39","20","0","9",272,1,0,272,439,439,2660,2660,167,167,0,1,1,167,"using ","3",5,3,4,"2","existential","demonstrative",6.08449941307517,5.605802066296,7.88608140177575,5
"282","10d","d","Y","quant","10","Were the books helpful?","1","right trigger","right trigger","13039479","Some novelist wrote that essay with minimal effort using several helpful books.","Y",141,"35","92","0","1",122,1,0,1150,1150,2112,1150,1150,962,0,962,0,0,317,"Some ","3",5,3,4,"9","existential","demonstrative",7.65539064482615,7.0475172213573,7.0475172213573,4
"283","10d","d","Y","quant","10","Were the books helpful?","1","right trigger","right trigger","13039479","Some novelist wrote that essay with minimal effort using several helpful books.","Y",141,"35","92","0","10",265,1,0,265,265,1905,265,4053,1640,0,1640,0,1,225,"several ","3",5,3,4,"2","existential","demonstrative",7.5522372875608,5.57972982598622,5.57972982598622,7
"284","10d","d","Y","quant","10","Were the books helpful?","1","right trigger","right trigger","13039479","Some novelist wrote that essay with minimal effort using several helpful books.","Y",141,"35","92","0","11",189,1,0,189,189,846,189,4242,657,0,657,0,2,118,"helpful ","3",5,3,4,"2","existential","demonstrative",6.74051935960622,5.24174701505964,5.24174701505964,7
"285","10d","d","Y","quant","10","Were the books helpful?","1","right trigger","right trigger","13039479","Some novelist wrote that essay with minimal effort using several helpful books.","Y",141,"35","92","0","12",111,1,111,111,111,111,7783,12025,0,0,0,1,1,111,"books. ","3",5,3,4,"2","existential","demonstrative",4.70953020131233,4.70953020131233,8.95969714695939,6
"286","10d","d","Y","quant","10","Were the books helpful?","1","right trigger","right trigger","13039479","Some novelist wrote that essay with minimal effort using several helpful books.","Y",141,"35","92","0","2",171,1,0,171,171,1114,171,1321,943,0,943,0,0,219,"novelist ","3",5,3,4,"9","existential","demonstrative",7.01571242048723,5.14166355650266,5.14166355650266,8
"287","10d","d","Y","quant","10","Were the books helpful?","1","right trigger","right trigger","13039479","Some novelist wrote that essay with minimal effort using several helpful books.","Y",141,"35","92","0","3",186,1,0,421,586,1490,990,2311,1069,165,904,1,1,207,"wrote ","3",5,3,4,"9","existential","demonstrative",7.30653139893951,6.04263283368238,6.89770494312864,5
"289","10d","d","Y","quant","10","Were the books helpful?","1","right trigger","right trigger","13039479","Some novelist wrote that essay with minimal effort using several helpful books.","Y",141,"35","92","0","5",124,1,0,124,124,1131,545,2856,1007,0,1007,1,2,282,"essay ","3",5,3,4,"0","existential","demonstrative",7.03085747611612,4.82028156560504,6.30078579466324,5
"290","10d","d","Y","quant","10","Were the books helpful?","1","right trigger","right trigger","13039479","Some novelist wrote that essay with minimal effort using several helpful books.","Y",141,"35","92","0","6",571,1,0,571,571,1038,571,3427,467,0,467,0,0,467,"with ","3",5,3,4,"1","existential","demonstrative",6.94505106372583,6.34738920965601,6.34738920965601,4
"292","10d","d","Y","quant","10","Were the books helpful?","1","right trigger","right trigger","13039479","Some novelist wrote that essay with minimal effort using several helpful books.","Y",141,"35","92","0","8",150,1,0,260,260,813,260,3687,553,0,553,0,0,211,"effort ","3",5,3,4,"1","existential","demonstrative",6.70073110954781,5.56068163101553,5.56068163101553,6
"293","10d","d","Y","quant","10","Were the books helpful?","1","right trigger","right trigger","13039479","Some novelist wrote that essay with minimal effort using several helpful books.","Y",141,"35","92","0","9",101,1,0,101,101,448,101,3788,347,0,347,0,0,137,"using ","3",5,3,4,"2","existential","demonstrative",6.10479323241498,4.61512051684126,4.61512051684126,5
"296","10d","d","Y","quant","10","Were the books helpful?","1","right trigger","right trigger","1494208","Some novelist wrote that essay with minimal effort using several helpful books.","Y",184,"7","67","0","11",163,1,163,163,163,163,312,3485,0,0,0,1,1,163,"helpful ","3",5,3,4,"2","existential","demonstrative",5.09375020080676,5.09375020080676,5.74300318780948,7
"297","10d","d","Y","quant","10","Were the books helpful?","1","right trigger","right trigger","1494208","Some novelist wrote that essay with minimal effort using several helpful books.","Y",184,"7","67","0","12",160,1,160,160,160,160,862,4347,0,0,0,1,1,160,"books. ","3",5,3,4,"2","existential","demonstrative",5.07517381523383,5.07517381523383,6.75925527066369,6
"303","10d","d","Y","quant","10","Were the books helpful?","1","right trigger","right trigger","1494208","Some novelist wrote that essay with minimal effort using several helpful books.","Y",184,"7","67","0","7",224,1,0,224,418,545,2953,2953,321,194,127,2,2,127,"minimal ","3",5,3,4,"1","existential","demonstrative",6.30078579466324,5.41164605185504,7.99057688174392,7
"304","10d","d","Y","quant","10","Were the books helpful?","1","right trigger","right trigger","1494208","Some novelist wrote that essay with minimal effort using several helpful books.","Y",184,"7","67","0","8",220,1,220,220,220,220,220,3173,0,0,0,0,0,220,"effort ","3",5,3,4,"1","existential","demonstrative",5.39362754635236,5.39362754635236,5.39362754635236,6
"305","10d","d","Y","quant","10","Were the books helpful?","1","right trigger","right trigger","1892768","Some novelist wrote that essay with minimal effort using several helpful books.","Y",314,"31","69","0","1",159,1,0,11334,11334,11334,11334,11334,0,0,0,0,0,11334,"Some ","3",5,3,4,"9","existential","demonstrative",9.33556233672956,9.33556233672956,9.33556233672956,4
"306","10d","d","Y","quant","10","Were the books helpful?","1","right trigger","right trigger","1892768","Some novelist wrote that essay with minimal effort using several helpful books.","Y",314,"31","69","0","10",191,1,0,364,364,579,364,13414,215,0,215,0,1,215,"several ","3",5,3,4,"2","existential","demonstrative",6.361302477573,5.89715386763674,5.89715386763674,7
"307","10d","d","Y","quant","10","Were the books helpful?","1","right trigger","right trigger","1892768","Some novelist wrote that essay with minimal effort using several helpful books.","Y",314,"31","69","0","11",179,1,179,179,179,179,610,14024,0,0,0,1,1,179,"helpful ","3",5,3,4,"2","existential","demonstrative",5.18738580584075,5.18738580584075,6.41345895716736,7
"308","10d","d","Y","quant","10","Were the books helpful?","1","right trigger","right trigger","1892768","Some novelist wrote that essay with minimal effort using several helpful books.","Y",314,"31","69","0","2",228,1,228,228,228,228,228,11562,0,0,0,0,0,228,"novelist ","3",5,3,4,"9","existential","demonstrative",5.42934562895444,5.42934562895444,5.42934562895444,8
"309","10d","d","Y","quant","10","Were the books helpful?","1","right trigger","right trigger","1892768","Some novelist wrote that essay with minimal effort using several helpful books.","Y",314,"31","69","0","3",206,1,0,206,206,422,206,11768,216,0,216,0,0,216,"wrote ","3",5,3,4,"9","existential","demonstrative",6.04500531403601,5.32787616878958,5.32787616878958,5
"310","10d","d","Y","quant","10","Were the books helpful?","1","right trigger","right trigger","1892768","Some novelist wrote that essay with minimal effort using several helpful books.","Y",314,"31","69","0","4",115,1,0,115,115,355,115,11883,240,0,240,0,0,240,"that ","3",5,3,4,"0","existential","demonstrative",5.87211778947542,4.74493212836325,4.74493212836325,4
"311","10d","d","Y","quant","10","Were the books helpful?","1","right trigger","right trigger","1892768","Some novelist wrote that essay with minimal effort using several helpful books.","Y",314,"31","69","0","6",238,1,0,238,464,464,704,12587,226,226,0,1,1,226,"with ","3",5,3,4,"1","existential","demonstrative",6.13988455222626,5.47227067367148,6.55677835615804,4
"312","10d","d","Y","quant","10","Were the books helpful?","1","right trigger","right trigger","1892768","Some novelist wrote that essay with minimal effort using several helpful books.","Y",314,"31","69","0","7",203,1,0,255,255,255,255,12842,0,0,0,0,0,255,"minimal ","3",5,3,4,"1","existential","demonstrative",5.54126354515843,5.54126354515843,5.54126354515843,7
"313","10d","d","Y","quant","10","Were the books helpful?","1","right trigger","right trigger","1892768","Some novelist wrote that essay with minimal effort using several helpful books.","Y",314,"31","69","0","8",208,1,208,208,208,208,208,13050,0,0,0,0,0,208,"effort ","3",5,3,4,"1","existential","demonstrative",5.33753807970132,5.33753807970132,5.33753807970132,6
"314","10d","d","Y","quant","10","Were the books helpful?","1","right trigger","right trigger","20746385","Some novelist wrote that essay with minimal effort using several helpful books.","Y",429,"15","113","0","1",114,1,0,853,853,1828,853,853,975,0,975,0,0,975,"Some ","3",5,3,4,"9","existential","demonstrative",7.5109777520141,6.74875954749168,6.74875954749168,4
"315","10d","d","Y","quant","10","Were the books helpful?","1","right trigger","right trigger","20746385","Some novelist wrote that essay with minimal effort using several helpful books.","Y",429,"15","113","0","10",250,1,250,250,250,250,616,3968,0,0,0,1,1,250,"several ","3",5,3,4,"2","existential","demonstrative",5.52146091786225,5.52146091786225,6.42324696353352,7
"316","10d","d","Y","quant","10","Were the books helpful?","1","right trigger","right trigger","20746385","Some novelist wrote that essay with minimal effort using several helpful books.","Y",429,"15","113","0","2",246,1,0,246,407,797,1382,2235,551,161,390,1,1,287,"novelist ","3",5,3,4,"9","existential","demonstrative",6.68085467879022,5.50533153593236,7.23128700432762,8
"317","10d","d","Y","quant","10","Were the books helpful?","1","right trigger","right trigger","20746385","Some novelist wrote that essay with minimal effort using several helpful books.","Y",429,"15","113","0","3",191,1,0,366,366,366,469,2704,0,0,0,1,1,366,"wrote ","3",5,3,4,"9","existential","demonstrative",5.90263333340137,5.90263333340137,6.15060276844628,5
"319","10d","d","Y","quant","10","Were the books helpful?","1","right trigger","right trigger","20746385","Some novelist wrote that essay with minimal effort using several helpful books.","Y",429,"15","113","0","5",162,1,162,162,162,162,326,3030,0,0,0,1,1,162,"essay ","3",5,3,4,"0","existential","demonstrative",5.08759633523238,5.08759633523238,5.78689738136671,5
"320","10d","d","Y","quant","10","Were the books helpful?","1","right trigger","right trigger","20746385","Some novelist wrote that essay with minimal effort using several helpful books.","Y",429,"15","113","0","7",194,1,0,194,194,273,194,3224,79,0,79,0,1,79,"minimal ","3",5,3,4,"1","existential","demonstrative",5.60947179518496,5.26785815906333,5.26785815906333,7
"321","10d","d","Y","quant","10","Were the books helpful?","1","right trigger","right trigger","20746385","Some novelist wrote that essay with minimal effort using several helpful books.","Y",429,"15","113","0","8",128,1,128,128,128,128,128,3352,0,0,0,0,0,128,"effort ","3",5,3,4,"1","existential","demonstrative",4.85203026391962,4.85203026391962,4.85203026391962,6
"322","10d","d","Y","quant","10","Were the books helpful?","1","right trigger","right trigger","2343165","Some novelist wrote that essay with minimal effort using several helpful books.","Y",464,"27","32","0","1",135,1,0,1268,1268,1602,1268,1268,334,0,334,0,0,334,"Some ","3",5,3,4,"9","existential","demonstrative",7.3790081276283,7.14519613499717,7.14519613499717,4
"323","10d","d","Y","quant","10","Were the books helpful?","1","right trigger","right trigger","2343165","Some novelist wrote that essay with minimal effort using several helpful books.","Y",464,"27","32","0","10",149,1,0,376,376,376,376,3873,0,0,0,0,0,376,"several ","3",5,3,4,"2","existential","demonstrative",5.92958914338989,5.92958914338989,5.92958914338989,7
"324","10d","d","Y","quant","10","Were the books helpful?","1","right trigger","right trigger","2343165","Some novelist wrote that essay with minimal effort using several helpful books.","Y",464,"27","32","0","11",195,1,195,195,195,195,355,4228,0,0,0,1,1,195,"helpful ","3",5,3,4,"2","existential","demonstrative",5.27299955856375,5.27299955856375,5.87211778947542,7
"325","10d","d","Y","quant","10","Were the books helpful?","1","right trigger","right trigger","2343165","Some novelist wrote that essay with minimal effort using several helpful books.","Y",464,"27","32","0","2",136,1,0,327,480,640,814,2082,313,153,160,1,1,160,"novelist ","3",5,3,4,"9","existential","demonstrative",6.46146817635372,5.78996017089725,6.70196036600254,8
"326","10d","d","Y","quant","10","Were the books helpful?","1","right trigger","right trigger","2343165","Some novelist wrote that essay with minimal effort using several helpful books.","Y",464,"27","32","0","3",166,1,166,166,166,166,166,2248,0,0,0,0,0,166,"wrote ","3",5,3,4,"9","existential","demonstrative",5.11198778835654,5.11198778835654,5.11198778835654,5
"328","10d","d","Y","quant","10","Were the books helpful?","1","right trigger","right trigger","2343165","Some novelist wrote that essay with minimal effort using several helpful books.","Y",464,"27","32","0","5",187,1,187,187,187,187,367,2615,0,0,0,1,1,187,"essay ","3",5,3,4,"0","existential","demonstrative",5.23110861685459,5.23110861685459,5.90536184805457,5
"329","10d","d","Y","quant","10","Were the books helpful?","1","right trigger","right trigger","2343165","Some novelist wrote that essay with minimal effort using several helpful books.","Y",464,"27","32","0","6",275,1,275,275,275,275,275,2890,0,0,0,0,0,275,"with ","3",5,3,4,"1","existential","demonstrative",5.61677109766657,5.61677109766657,5.61677109766657,4
"330","10d","d","Y","quant","10","Were the books helpful?","1","right trigger","right trigger","2343165","Some novelist wrote that essay with minimal effort using several helpful books.","Y",464,"27","32","0","7",168,1,168,168,168,168,168,3058,0,0,0,0,0,168,"minimal ","3",5,3,4,"1","existential","demonstrative",5.12396397940326,5.12396397940326,5.12396397940326,7
"331","10d","d","Y","quant","10","Were the books helpful?","1","right trigger","right trigger","2343165","Some novelist wrote that essay with minimal effort using several helpful books.","Y",464,"27","32","0","8",263,1,263,263,263,263,263,3321,0,0,0,0,0,263,"effort ","3",5,3,4,"1","existential","demonstrative",5.57215403217776,5.57215403217776,5.57215403217776,6
"332","10d","d","Y","quant","10","Were the books helpful?","1","right trigger","right trigger","2343165","Some novelist wrote that essay with minimal effort using several helpful books.","Y",464,"27","32","0","9",176,1,176,176,176,176,176,3497,0,0,0,0,0,176,"using ","3",5,3,4,"2","existential","demonstrative",5.17048399503815,5.17048399503815,5.17048399503815,5
"335","10d","d","Y","quant","10","Were the books helpful?","1","right trigger","right trigger","2423972","Some novelist wrote that essay with minimal effort using several helpful books.","Y",491,"11","30","0","11",150,1,0,150,559,559,717,3643,409,409,0,1,1,409,"helpful ","3",5,3,4,"2","existential","demonstrative",6.3261494731551,5.01063529409626,6.57507584059962,7
"336","10d","d","Y","quant","10","Were the books helpful?","1","right trigger","right trigger","2423972","Some novelist wrote that essay with minimal effort using several helpful books.","Y",491,"11","30","0","12",191,1,0,191,495,495,960,4603,304,304,0,2,2,304,"books. ","3",5,3,4,"2","existential","demonstrative",6.20455776256869,5.25227342804663,6.86693328446188,6
"341","10d","d","Y","quant","10","Were the books helpful?","1","right trigger","right trigger","2423972","Some novelist wrote that essay with minimal effort using several helpful books.","Y",491,"11","30","0","7",166,1,0,166,481,481,2610,2610,315,315,0,1,1,315,"minimal ","3",5,3,4,"1","existential","demonstrative",6.17586727010576,5.11198778835654,7.86710550031674,7
"342","10d","d","Y","quant","10","Were the books helpful?","1","right trigger","right trigger","2423972","Some novelist wrote that essay with minimal effort using several helpful books.","Y",491,"11","30","0","8",182,1,182,182,182,182,182,2792,0,0,0,0,0,182,"effort ","3",5,3,4,"1","existential","demonstrative",5.2040066870768,5.2040066870768,5.2040066870768,6
"343","10d","d","Y","quant","10","Were the books helpful?","1","right trigger","right trigger","2423972","Some novelist wrote that essay with minimal effort using several helpful books.","Y",491,"11","30","0","9",134,1,134,134,134,134,134,2926,0,0,0,0,0,134,"using ","3",5,3,4,"2","existential","demonstrative",4.89783979995091,4.89783979995091,4.89783979995091,5
"344","10d","d","Y","quant","10","Were the books helpful?","1","right trigger","right trigger","4094113","Some novelist wrote that essay with minimal effort using several helpful books.","Y",612,"23","17","0","1",122,1,0,701,701,2146,701,701,1445,0,1445,0,0,170,"Some ","3",5,3,4,"9","existential","demonstrative",7.67136092319064,6.55250788703459,6.55250788703459,4
"345","10d","d","Y","quant","10","Were the books helpful?","1","right trigger","right trigger","4094113","Some novelist wrote that essay with minimal effort using several helpful books.","Y",612,"23","17","0","10",188,1,0,188,188,844,188,3938,656,0,656,0,1,314,"several ","3",5,3,4,"2","existential","demonstrative",6.73815249459596,5.23644196282995,5.23644196282995,7
"346","10d","d","Y","quant","10","Were the books helpful?","1","right trigger","right trigger","4094113","Some novelist wrote that essay with minimal effort using several helpful books.","Y",612,"23","17","0","11",142,1,0,142,291,291,2697,6635,149,149,0,2,2,149,"helpful ","3",5,3,4,"2","existential","demonstrative",5.67332326717149,4.95582705760126,7.89989532313973,7
"347","10d","d","Y","quant","10","Were the books helpful?","1","right trigger","right trigger","4094113","Some novelist wrote that essay with minimal effort using several helpful books.","Y",612,"23","17","0","2",222,1,0,222,222,488,1072,1773,266,0,266,1,1,149,"novelist ","3",5,3,4,"9","existential","demonstrative",6.19031540585315,5.40267738187228,6.97728134163075,8
"348","10d","d","Y","quant","10","Were the books helpful?","1","right trigger","right trigger","4094113","Some novelist wrote that essay with minimal effort using several helpful books.","Y",612,"23","17","0","3",178,1,0,178,309,775,676,2449,597,131,466,1,1,333,"wrote ","3",5,3,4,"9","existential","demonstrative",6.65286302935335,5.18178355029209,6.51619307604296,5
"349","10d","d","Y","quant","10","Were the books helpful?","1","right trigger","right trigger","4094113","Some novelist wrote that essay with minimal effort using several helpful books.","Y",612,"23","17","0","4",353,1,0,353,353,378,353,2802,25,0,25,0,0,25,"that ","3",5,3,4,"0","existential","demonstrative",5.93489419561959,5.8664680569333,5.8664680569333,4
"350","10d","d","Y","quant","10","Were the books helpful?","1","right trigger","right trigger","4094113","Some novelist wrote that essay with minimal effort using several helpful books.","Y",612,"23","17","0","6",227,1,0,388,388,608,388,3190,220,0,220,0,0,220,"with ","3",5,3,4,"1","existential","demonstrative",6.41017488196617,5.96100533962327,5.96100533962327,4
"351","10d","d","Y","quant","10","Were the books helpful?","1","right trigger","right trigger","4094113","Some novelist wrote that essay with minimal effort using several helpful books.","Y",612,"23","17","0","7",141,1,0,141,141,294,141,3331,153,0,153,0,0,153,"minimal ","3",5,3,4,"1","existential","demonstrative",5.68357976733868,4.94875989037817,4.94875989037817,7
"352","10d","d","Y","quant","10","Were the books helpful?","1","right trigger","right trigger","4094113","Some novelist wrote that essay with minimal effort using several helpful books.","Y",612,"23","17","0","8",174,1,0,419,419,660,419,3750,241,0,241,0,0,241,"effort ","3",5,3,4,"1","existential","demonstrative",6.49223983502047,6.03787091992214,6.03787091992214,6
"354","10d","d","Y","quant","10","Were the books helpful?","1","right trigger","right trigger","4585875","Some novelist wrote that essay with minimal effort using several helpful books.","Y",629,"3","9","0","1",174,1,0,508,508,1588,508,508,1080,0,1080,0,0,137,"Some ","3",5,3,4,"9","existential","demonstrative",7.37023064180708,6.23048144757848,6.23048144757848,4
"356","10d","d","Y","quant","10","Were the books helpful?","1","right trigger","right trigger","4585875","Some novelist wrote that essay with minimal effort using several helpful books.","Y",629,"3","9","0","11",122,1,0,122,350,350,506,4231,228,228,0,1,1,228,"helpful ","3",5,3,4,"2","existential","demonstrative",5.85793315448346,4.80402104473326,6.22653666928747,7
"360","10d","d","Y","quant","10","Were the books helpful?","1","right trigger","right trigger","4585875","Some novelist wrote that essay with minimal effort using several helpful books.","Y",629,"3","9","0","5",212,1,0,212,212,462,212,720,250,0,250,0,1,250,"essay ","3",5,3,4,"0","existential","demonstrative",6.13556489108174,5.35658627467201,5.35658627467201,5
"362","10d","d","Y","quant","10","Were the books helpful?","1","right trigger","right trigger","4585875","Some novelist wrote that essay with minimal effort using several helpful books.","Y",629,"3","9","0","7",201,1,0,201,391,391,2771,3491,190,190,0,1,1,190,"minimal ","3",5,3,4,"1","existential","demonstrative",5.96870755998537,5.30330490805908,7.92696354486298,7
"363","10d","d","Y","quant","10","Were the books helpful?","1","right trigger","right trigger","4585875","Some novelist wrote that essay with minimal effort using several helpful books.","Y",629,"3","9","0","8",129,1,129,129,129,129,129,3620,0,0,0,0,0,129,"effort ","3",5,3,4,"1","existential","demonstrative",4.85981240436167,4.85981240436167,4.85981240436167,6
"364","10d","d","Y","quant","10","Were the books helpful?","1","right trigger","right trigger","4585875","Some novelist wrote that essay with minimal effort using several helpful books.","Y",629,"3","9","0","9",105,1,105,105,105,105,105,3725,0,0,0,0,0,105,"using ","3",5,3,4,"2","existential","demonstrative",4.65396035015752,4.65396035015752,4.65396035015752,5
"366","11a","a","N","quant","11","Was the interview quiet?","0","left trigger","right trigger","5125463","Oliver interviewed each candidate before the reception despite the noise.","Y",692,"39","5","0","10",178,1,178,178,178,178,780,3326,0,0,0,1,1,178,"noise. ","1",4,3,3,"2","name","universal",5.18178355029209,5.18178355029209,6.65929391968364,6
"367","11a","a","N","quant","11","Was the interview quiet?","0","left trigger","right trigger","5125463","Oliver interviewed each candidate before the reception despite the noise.","Y",692,"39","5","0","2",105,1,0,105,282,519,1234,1234,414,177,237,1,1,237,"interviewed ","1",4,3,3,"9","name","universal",6.25190388316589,4.65396035015752,7.11801620446533,11
"368","11a","a","N","quant","11","Was the interview quiet?","0","left trigger","right trigger","5125463","Oliver interviewed each candidate before the reception despite the noise.","Y",692,"39","5","0","3",168,1,0,168,168,533,168,1402,365,0,365,0,0,365,"each ","1",4,3,3,"0","name","universal",6.27852142416584,5.12396397940326,5.12396397940326,4
"369","11a","a","N","quant","11","Was the interview quiet?","0","left trigger","right trigger","5125463","Oliver interviewed each candidate before the reception despite the noise.","Y",692,"39","5","0","4",308,1,308,308,308,308,308,1710,0,0,0,0,0,308,"candidate ","1",4,3,3,"0","name","universal",5.73009978297357,5.73009978297357,5.73009978297357,9
"370","11a","a","N","quant","11","Was the interview quiet?","0","left trigger","right trigger","5125463","Oliver interviewed each candidate before the reception despite the noise.","Y",692,"39","5","0","5",126,1,126,126,126,126,126,1836,0,0,0,0,0,126,"before ","1",4,3,3,"1","name","universal",4.83628190695148,4.83628190695148,4.83628190695148,6
"371","11a","a","N","quant","11","Was the interview quiet?","0","left trigger","right trigger","5125463","Oliver interviewed each candidate before the reception despite the noise.","Y",692,"39","5","0","7",125,1,125,125,125,125,125,1961,0,0,0,0,0,125,"reception ","1",4,3,3,"1","name","universal",4.8283137373023,4.8283137373023,4.8283137373023,9
"372","11a","a","N","quant","11","Was the interview quiet?","0","left trigger","right trigger","5125463","Oliver interviewed each candidate before the reception despite the noise.","Y",692,"39","5","0","8",252,1,252,252,252,252,252,2213,0,0,0,0,0,252,"despite ","1",4,3,3,"2","name","universal",5.52942908751142,5.52942908751142,5.52942908751142,7
"373","11a","a","N","quant","11","Was the interview quiet?","0","left trigger","right trigger","5125463","Oliver interviewed each candidate before the reception despite the noise.","Y",692,"39","5","0","9",333,1,333,333,333,333,333,2546,0,0,0,0,0,333,"the ","1",4,3,3,"2","name","universal",5.80814248998044,5.80814248998044,5.80814248998044,3
"374","11a","a","N","quant","11","Was the interview quiet?","1","left trigger","left trigger","13039945","Oliver interviewed each candidate before the reception despite the noise.","Y",126,"35","48","0","1",113,1,0,1211,1211,1399,1211,1211,188,0,188,0,0,188,"Oliver ","1",4,3,3,"9","name","universal",7.24351297466548,7.09920174355309,7.09920174355309,6
"375","11a","a","N","quant","11","Was the interview quiet?","1","left trigger","left trigger","13039945","Oliver interviewed each candidate before the reception despite the noise.","Y",126,"35","48","0","10",281,1,281,281,281,281,281,4185,0,0,0,0,0,281,"noise. ","1",4,3,3,"2","name","universal",5.63835466933375,5.63835466933375,5.63835466933375,6
"376","11a","a","N","quant","11","Was the interview quiet?","1","left trigger","left trigger","13039945","Oliver interviewed each candidate before the reception despite the noise.","Y",126,"35","48","0","2",382,1,0,523,523,713,711,1922,190,0,190,1,1,190,"interviewed ","1",4,3,3,"9","name","universal",6.5694814204143,6.25958146406492,6.56667242980324,11
"377","11a","a","N","quant","11","Was the interview quiet?","1","left trigger","left trigger","13039945","Oliver interviewed each candidate before the reception despite the noise.","Y",126,"35","48","0","3",280,1,0,318,318,318,508,2430,0,0,0,1,1,318,"each ","1",4,3,3,"0","name","universal",5.76205138278018,5.76205138278018,6.23048144757848,4
"378","11a","a","N","quant","11","Was the interview quiet?","1","left trigger","left trigger","13039945","Oliver interviewed each candidate before the reception despite the noise.","Y",126,"35","48","0","4",177,1,177,177,177,177,177,2607,0,0,0,0,0,177,"candidate ","1",4,3,3,"0","name","universal",5.17614973257383,5.17614973257383,5.17614973257383,9
"379","11a","a","N","quant","11","Was the interview quiet?","1","left trigger","left trigger","13039945","Oliver interviewed each candidate before the reception despite the noise.","Y",126,"35","48","0","5",213,1,213,213,213,213,213,2820,0,0,0,0,0,213,"before ","1",4,3,3,"1","name","universal",5.36129216570943,5.36129216570943,5.36129216570943,6
"380","11a","a","N","quant","11","Was the interview quiet?","1","left trigger","left trigger","13039945","Oliver interviewed each candidate before the reception despite the noise.","Y",126,"35","48","0","7",130,1,130,130,130,130,130,2950,0,0,0,0,0,130,"reception ","1",4,3,3,"1","name","universal",4.86753445045558,4.86753445045558,4.86753445045558,9
"381","11a","a","N","quant","11","Was the interview quiet?","1","left trigger","left trigger","13039945","Oliver interviewed each candidate before the reception despite the noise.","Y",126,"35","48","0","8",195,1,0,954,954,954,954,3904,0,0,0,0,0,954,"despite ","1",4,3,3,"2","name","universal",6.86066367144829,6.86066367144829,6.86066367144829,7
"382","11a","a","N","quant","11","Was the interview quiet?","1","left trigger","left trigger","1496257","Oliver interviewed each candidate before the reception despite the noise.","Y",185,"7","59","0","1",182,1,0,1125,1125,1303,1125,1125,178,0,178,0,0,178,"Oliver ","1",4,3,3,"9","name","universal",7.17242457712485,7.02553831463852,7.02553831463852,6
"383","11a","a","N","quant","11","Was the interview quiet?","1","left trigger","left trigger","1496257","Oliver interviewed each candidate before the reception despite the noise.","Y",185,"7","59","0","2",153,1,0,153,153,293,153,1278,140,0,140,0,1,140,"interviewed ","1",4,3,3,"9","name","universal",5.68017260901707,5.03043792139244,5.03043792139244,11
"384","11a","a","N","quant","11","Was the interview quiet?","1","left trigger","left trigger","1496257","Oliver interviewed each candidate before the reception despite the noise.","Y",185,"7","59","0","3",216,1,0,216,216,480,534,1812,264,0,264,1,1,164,"each ","1",4,3,3,"0","name","universal",6.17378610390194,5.37527840768417,6.2803958389602,4
"385","11a","a","N","quant","11","Was the interview quiet?","1","left trigger","left trigger","1496257","Oliver interviewed each candidate before the reception despite the noise.","Y",185,"7","59","0","4",151,1,0,151,151,543,151,1963,392,0,392,0,0,189,"candidate ","1",4,3,3,"0","name","universal",6.29710931993394,5.01727983681492,5.01727983681492,9
"386","11a","a","N","quant","11","Was the interview quiet?","1","left trigger","left trigger","1496257","Oliver interviewed each candidate before the reception despite the noise.","Y",185,"7","59","0","5",140,1,0,140,140,590,240,2203,450,0,450,1,2,450,"before ","1",4,3,3,"1","name","universal",6.38012253689976,4.9416424226093,5.48063892334199,6
"387","11a","a","N","quant","11","Was the interview quiet?","1","left trigger","left trigger","1496257","Oliver interviewed each candidate before the reception despite the noise.","Y",185,"7","59","0","6",188,1,188,188,188,188,188,2391,0,0,0,0,0,188,"the ","1",4,3,3,"1","name","universal",5.23644196282995,5.23644196282995,5.23644196282995,3
"389","11a","a","N","quant","11","Was the interview quiet?","1","left trigger","left trigger","1496257","Oliver interviewed each candidate before the reception despite the noise.","Y",185,"7","59","0","9",144,1,0,144,446,446,1805,4196,302,302,0,2,2,164,"the ","1",4,3,3,"2","name","universal",6.10031895202006,4.969813299576,7.49831587076698,3
"390","11a","a","N","quant","11","Was the interview quiet?","1","left trigger","left trigger","1893358","Oliver interviewed each candidate before the reception despite the noise.","Y",312,"31","110","0","1",50,1,0,1096,1096,1096,1096,1096,0,0,0,0,0,1096,"Oliver ","1",4,3,3,"9","name","universal",6.99942246750796,6.99942246750796,6.99942246750796,6
"391","11a","a","N","quant","11","Was the interview quiet?","1","left trigger","left trigger","1893358","Oliver interviewed each candidate before the reception despite the noise.","Y",312,"31","110","0","2",206,1,0,206,206,403,206,1302,197,0,197,0,0,197,"interviewed ","1",4,3,3,"9","name","universal",5.99893656194668,5.32787616878958,5.32787616878958,11
"392","11a","a","N","quant","11","Was the interview quiet?","1","left trigger","left trigger","1893358","Oliver interviewed each candidate before the reception despite the noise.","Y",312,"31","110","0","3",308,1,0,648,648,648,648,1950,0,0,0,0,0,648,"each ","1",4,3,3,"0","name","universal",6.47389069635227,6.47389069635227,6.47389069635227,4
"394","11a","a","N","quant","11","Was the interview quiet?","1","left trigger","left trigger","1893358","Oliver interviewed each candidate before the reception despite the noise.","Y",312,"31","110","0","5",210,1,0,210,210,356,210,2160,146,0,146,0,0,146,"before ","1",4,3,3,"1","name","universal",5.87493073085203,5.34710753071747,5.34710753071747,6
"395","11a","a","N","quant","11","Was the interview quiet?","1","left trigger","left trigger","1893358","Oliver interviewed each candidate before the reception despite the noise.","Y",312,"31","110","0","6",284,1,0,284,373,373,519,2679,89,89,0,1,1,89,"the ","1",4,3,3,"1","name","universal",5.92157841964382,5.64897423816121,6.25190388316589,3
"396","11a","a","N","quant","11","Was the interview quiet?","1","left trigger","left trigger","1893358","Oliver interviewed each candidate before the reception despite the noise.","Y",312,"31","110","0","8",314,1,0,469,469,469,469,3148,0,0,0,0,0,469,"despite ","1",4,3,3,"2","name","universal",6.15060276844628,6.15060276844628,6.15060276844628,7
"397","11a","a","N","quant","11","Was the interview quiet?","1","left trigger","left trigger","1893358","Oliver interviewed each candidate before the reception despite the noise.","Y",312,"31","110","0","9",140,1,140,140,140,140,430,3578,0,0,0,1,1,140,"the ","1",4,3,3,"2","name","universal",4.9416424226093,4.9416424226093,6.06378520868761,3
"398","11a","a","N","quant","11","Was the interview quiet?","1","left trigger","left trigger","20745679","Oliver interviewed each candidate before the reception despite the noise.","Y",426,"15","17","0","1",181,1,0,1431,1431,1431,1431,1431,0,0,0,0,0,1431,"Oliver ","1",4,3,3,"9","name","universal",7.26612877955645,7.26612877955645,7.26612877955645,6
"399","11a","a","N","quant","11","Was the interview quiet?","1","left trigger","left trigger","20745679","Oliver interviewed each candidate before the reception despite the noise.","Y",426,"15","17","0","2",318,1,0,318,318,872,318,1749,554,0,554,0,0,89,"interviewed ","1",4,3,3,"9","name","universal",6.77078942390898,5.76205138278018,5.76205138278018,11
"400","11a","a","N","quant","11","Was the interview quiet?","1","left trigger","left trigger","20745679","Oliver interviewed each candidate before the reception despite the noise.","Y",426,"15","17","0","3",217,1,217,217,217,217,217,1966,0,0,0,0,0,217,"each ","1",4,3,3,"0","name","universal",5.37989735354046,5.37989735354046,5.37989735354046,4
"401","11a","a","N","quant","11","Was the interview quiet?","1","left trigger","left trigger","20745679","Oliver interviewed each candidate before the reception despite the noise.","Y",426,"15","17","0","5",440,1,440,440,440,440,440,2406,0,0,0,0,0,440,"before ","1",4,3,3,"1","name","universal",6.08677472691231,6.08677472691231,6.08677472691231,6
"402","11a","a","N","quant","11","Was the interview quiet?","1","left trigger","left trigger","20745679","Oliver interviewed each candidate before the reception despite the noise.","Y",426,"15","17","0","8",534,1,534,534,534,534,534,2940,0,0,0,0,0,534,"despite ","1",4,3,3,"2","name","universal",6.2803958389602,6.2803958389602,6.2803958389602,7
"403","11a","a","N","quant","11","Was the interview quiet?","1","left trigger","left trigger","20745679","Oliver interviewed each candidate before the reception despite the noise.","Y",426,"15","17","0","9",147,1,0,147,434,434,988,3928,287,287,0,2,2,287,"the ","1",4,3,3,"2","name","universal",6.07304453410041,4.99043258677874,6.89568269774787,3
"404","11a","a","N","quant","11","Was the interview quiet?","1","left trigger","left trigger","2342676","Oliver interviewed each candidate before the reception despite the noise.","Y",450,"27","118","0","1",189,1,0,1063,1063,1063,1063,1063,0,0,0,0,0,1063,"Oliver ","1",4,3,3,"9","name","universal",6.96885037834195,6.96885037834195,6.96885037834195,6
"405","11a","a","N","quant","11","Was the interview quiet?","1","left trigger","left trigger","2342676","Oliver interviewed each candidate before the reception despite the noise.","Y",450,"27","118","0","2",145,1,145,145,145,145,145,1208,0,0,0,0,0,145,"interviewed ","1",4,3,3,"9","name","universal",4.97673374242057,4.97673374242057,4.97673374242057,11
"406","11a","a","N","quant","11","Was the interview quiet?","1","left trigger","left trigger","2342676","Oliver interviewed each candidate before the reception despite the noise.","Y",450,"27","118","0","3",289,1,289,289,289,289,289,1497,0,0,0,0,0,289,"each ","1",4,3,3,"0","name","universal",5.66642668811243,5.66642668811243,5.66642668811243,4
"407","11a","a","N","quant","11","Was the interview quiet?","1","left trigger","left trigger","2342676","Oliver interviewed each candidate before the reception despite the noise.","Y",450,"27","118","0","5",202,1,202,202,202,202,202,1699,0,0,0,0,0,202,"before ","1",4,3,3,"1","name","universal",5.30826769740121,5.30826769740121,5.30826769740121,6
"409","11a","a","N","quant","11","Was the interview quiet?","1","left trigger","left trigger","2342676","Oliver interviewed each candidate before the reception despite the noise.","Y",450,"27","118","0","7",134,1,134,134,134,134,134,1833,0,0,0,0,0,134,"reception ","1",4,3,3,"1","name","universal",4.89783979995091,4.89783979995091,4.89783979995091,9
"410","11a","a","N","quant","11","Was the interview quiet?","1","left trigger","left trigger","2342676","Oliver interviewed each candidate before the reception despite the noise.","Y",450,"27","118","0","8",401,1,401,401,401,401,401,2234,0,0,0,0,0,401,"despite ","1",4,3,3,"2","name","universal",5.99396142730657,5.99396142730657,5.99396142730657,7
"411","11a","a","N","quant","11","Was the interview quiet?","1","left trigger","left trigger","2342676","Oliver interviewed each candidate before the reception despite the noise.","Y",450,"27","118","0","9",159,1,159,159,159,159,282,2516,0,0,0,1,1,159,"the ","1",4,3,3,"2","name","universal",5.06890420222023,5.06890420222023,5.64190707093811,3
"412","11a","a","N","quant","11","Was the interview quiet?","1","left trigger","left trigger","2423841","Oliver interviewed each candidate before the reception despite the noise.","Y",500,"11","59","0","1",120,1,0,935,935,1291,935,935,356,0,356,0,0,356,"Oliver ","1",4,3,3,"9","name","universal",7.16317239084664,6.84054652928869,6.84054652928869,6
"413","11a","a","N","quant","11","Was the interview quiet?","1","left trigger","left trigger","2423841","Oliver interviewed each candidate before the reception despite the noise.","Y",500,"11","59","0","2",52,1,0,52,222,796,578,1513,744,170,574,1,1,306,"interviewed ","1",4,3,3,"9","name","universal",6.67959918584438,3.95124371858143,6.35957386867238,11
"414","11a","a","N","quant","11","Was the interview quiet?","1","left trigger","left trigger","2423841","Oliver interviewed each candidate before the reception despite the noise.","Y",500,"11","59","0","3",259,1,0,259,417,417,685,2198,158,158,0,1,1,158,"each ","1",4,3,3,"0","name","universal",6.0330862217988,5.55682806169954,6.52941883826223,4
"415","11a","a","N","quant","11","Was the interview quiet?","1","left trigger","left trigger","2423841","Oliver interviewed each candidate before the reception despite the noise.","Y",500,"11","59","0","4",242,1,0,242,242,421,242,2440,179,0,179,0,0,179,"candidate ","1",4,3,3,"0","name","universal",6.04263283368238,5.48893772615669,5.48893772615669,9
"416","11a","a","N","quant","11","Was the interview quiet?","1","left trigger","left trigger","2423841","Oliver interviewed each candidate before the reception despite the noise.","Y",500,"11","59","0","5",205,1,0,205,205,537,205,2645,332,0,332,0,1,137,"before ","1",4,3,3,"1","name","universal",6.28599809450886,5.32300997913841,5.32300997913841,6
"417","11a","a","N","quant","11","Was the interview quiet?","1","left trigger","left trigger","2423841","Oliver interviewed each candidate before the reception despite the noise.","Y",500,"11","59","0","6",278,1,278,278,278,278,278,2923,0,0,0,0,0,278,"the ","1",4,3,3,"1","name","universal",5.62762111369064,5.62762111369064,5.62762111369064,3
"418","11a","a","N","quant","11","Was the interview quiet?","1","left trigger","left trigger","2423841","Oliver interviewed each candidate before the reception despite the noise.","Y",500,"11","59","0","7",162,1,0,162,432,432,627,3550,270,270,0,1,1,270,"reception ","1",4,3,3,"1","name","universal",6.06842558824411,5.08759633523238,6.44094654063292,9
"419","11a","a","N","quant","11","Was the interview quiet?","1","left trigger","left trigger","2423841","Oliver interviewed each candidate before the reception despite the noise.","Y",500,"11","59","0","8",141,1,0,287,287,435,287,3837,148,0,148,0,0,148,"despite ","1",4,3,3,"2","name","universal",6.07534603108868,5.65948221575962,5.65948221575962,7
